# baseURI: http://rdf.cdisc.org/sdtm-1-2/std
# imports: http://rdf.cdisc.org/sdtm-1-2/schema

# c14n-version: 3
@prefix cdiscs: <http://rdf.cdisc.org/schema#> .
@prefix dc: <http://purl.org/dc/elements/1.1/> .
@prefix mms: <http://rdf.cdisc.org/mms#> .
@prefix owl: <http://www.w3.org/2002/07/owl#> .
@prefix rdf: <http://www.w3.org/1999/02/22-rdf-syntax-ns#> .
@prefix rdfs: <http://www.w3.org/2000/01/rdf-schema#> .
@prefix sdtm-1-2: <http://rdf.cdisc.org/sdtm-1-2/std#> .
@prefix sdtms-1-2: <http://rdf.cdisc.org/sdtm-1-2/schema#> .
@prefix skos: <http://www.w3.org/2004/02/skos/core#> .
@prefix xsd: <http://www.w3.org/2001/XMLSchema#> .
<http://rdf.cdisc.org/sdtm-1-2/std>
  rdf:type owl:Ontology ;
  dc:creator "Frederik Malfait, Hoffmann-La Roche"^^xsd:string ;
  rdfs:label "Study Data Tabulation Model (SDTM)"^^xsd:string ;
  owl:imports <http://rdf.cdisc.org/sdtm-1-2/schema> ;
  owl:versionInfo "1.2"^^xsd:string ;
  skos:definition "An ontology representing the content of the Study Data Tabulation Model (SDTM) Version 1.2 as published by CDISC."^^xsd:string ;
.
<http://rdf.cdisc.org/sdtm-1-2/std#DE.Event.--ACN>
  rdf:type mms:DataElement ;
  mms:context sdtm-1-2:EventVariables ;
  mms:dataElementDescription "Describes changes made to the study treatment as a result of the event. Examples: DOSE INCREASED, DOSE NOT CHANGED."^^xsd:string ;
  mms:dataElementLabel "Action Taken with Study Treatment"^^xsd:string ;
  mms:dataElementName "--ACN"^^xsd:string ;
  mms:dataElementType "xsd:string"^^xsd:anySimpleType ;
  mms:ordinal "14"^^xsd:positiveInteger ;
  cdiscs:dataElementRole <http://rdf.cdisc.org/sdtm-1-2/schema#Classifier.RecordQualifier> ;
  cdiscs:dataElementType <http://rdf.cdisc.org/schema#Classifier.Character> ;
  sdtms-1-2:supportedBySDTMIG "true"^^xsd:boolean ;
  sdtms-1-2:supportedBySEND "true"^^xsd:boolean ;
.
<http://rdf.cdisc.org/sdtm-1-2/std#DE.Event.--ACNOTH>
  rdf:type mms:DataElement ;
  mms:context sdtm-1-2:EventVariables ;
  mms:dataElementDescription "Describes other actions taken as a result of the event that are unrelated to dose adjustments of study treatment."^^xsd:string ;
  mms:dataElementLabel "Other Action Taken"^^xsd:string ;
  mms:dataElementName "--ACNOTH"^^xsd:string ;
  mms:dataElementType "xsd:string"^^xsd:anySimpleType ;
  mms:ordinal "15"^^xsd:positiveInteger ;
  cdiscs:dataElementRole <http://rdf.cdisc.org/sdtm-1-2/schema#Classifier.RecordQualifier> ;
  cdiscs:dataElementType <http://rdf.cdisc.org/schema#Classifier.Character> ;
  sdtms-1-2:supportedBySDTMIG "true"^^xsd:boolean ;
  sdtms-1-2:supportedBySEND "true"^^xsd:boolean ;
.
<http://rdf.cdisc.org/sdtm-1-2/std#DE.Event.--BODSYS>
  rdf:type mms:DataElement ;
  mms:context sdtm-1-2:EventVariables ;
  mms:dataElementDescription "Body system or system organ class from a standard hierarchy (e.g. MedDRA) associated with an event. Example: GASTROINTESTINAL DISORDERS."^^xsd:string ;
  mms:dataElementLabel "Body System or Organ Class"^^xsd:string ;
  mms:dataElementName "--BODSYS"^^xsd:string ;
  mms:dataElementType "xsd:string"^^xsd:anySimpleType ;
  mms:ordinal "10"^^xsd:positiveInteger ;
  cdiscs:dataElementRole <http://rdf.cdisc.org/sdtm-1-2/schema#Classifier.RecordQualifier> ;
  cdiscs:dataElementType <http://rdf.cdisc.org/schema#Classifier.Character> ;
  sdtms-1-2:supportedBySDTMIG "true"^^xsd:boolean ;
  sdtms-1-2:supportedBySEND "true"^^xsd:boolean ;
.
<http://rdf.cdisc.org/sdtm-1-2/std#DE.Event.--CAT>
  rdf:type mms:DataElement ;
  mms:context sdtm-1-2:EventVariables ;
  mms:dataElementDescription "Used to define a category of topic-variable values."^^xsd:string ;
  mms:dataElementLabel "Category"^^xsd:string ;
  mms:dataElementName "--CAT"^^xsd:string ;
  mms:dataElementType "xsd:string"^^xsd:anySimpleType ;
  mms:ordinal "4"^^xsd:positiveInteger ;
  cdiscs:dataElementRole <http://rdf.cdisc.org/sdtm-1-2/schema#Classifier.GroupingQualifier> ;
  cdiscs:dataElementType <http://rdf.cdisc.org/schema#Classifier.Character> ;
  sdtms-1-2:supportedBySDTMIG "true"^^xsd:boolean ;
  sdtms-1-2:supportedBySEND "true"^^xsd:boolean ;
.
<http://rdf.cdisc.org/sdtm-1-2/std#DE.Event.--CONTRT>
  rdf:type mms:DataElement ;
  mms:context sdtm-1-2:EventVariables ;
  mms:dataElementDescription "Was another treatment given because of the occurrence of the event? Valid values are \"Y\" and \"N\"."^^xsd:string ;
  mms:dataElementLabel "Concomitant or Additional Trtmnt Given"^^xsd:string ;
  mms:dataElementName "--CONTRT"^^xsd:string ;
  mms:dataElementType "xsd:string"^^xsd:anySimpleType ;
  mms:ordinal "28"^^xsd:positiveInteger ;
  cdiscs:dataElementRole <http://rdf.cdisc.org/sdtm-1-2/schema#Classifier.RecordQualifier> ;
  cdiscs:dataElementType <http://rdf.cdisc.org/schema#Classifier.Character> ;
  sdtms-1-2:supportedBySDTMIG "true"^^xsd:boolean ;
  sdtms-1-2:supportedBySEND "true"^^xsd:boolean ;
.
<http://rdf.cdisc.org/sdtm-1-2/std#DE.Event.--DECOD>
  rdf:type mms:DataElement ;
  mms:context sdtm-1-2:EventVariables ;
  mms:dataElementDescription "Dictionary or sponsor-defined derived text description of the topic variable, --TERM, or the modified topic variable (--MODIFY), if applicable. Equivalent to the Preferred Term (PT in MedDRA)."^^xsd:string ;
  mms:dataElementLabel "Dictionary-Derived Term"^^xsd:string ;
  mms:dataElementName "--DECOD"^^xsd:string ;
  mms:dataElementType "xsd:string"^^xsd:anySimpleType ;
  mms:ordinal "3"^^xsd:positiveInteger ;
  cdiscs:dataElementRole <http://rdf.cdisc.org/sdtm-1-2/schema#Classifier.SynonymQualifier> ;
  cdiscs:dataElementType <http://rdf.cdisc.org/schema#Classifier.Character> ;
  sdtms-1-2:qualifies <http://rdf.cdisc.org/sdtm-1-2/std#DE.Event.--TERM> ;
  sdtms-1-2:supportedBySDTMIG "true"^^xsd:boolean ;
  sdtms-1-2:supportedBySEND "true"^^xsd:boolean ;
.
<http://rdf.cdisc.org/sdtm-1-2/std#DE.Event.--LOC>
  rdf:type mms:DataElement ;
  mms:context sdtm-1-2:EventVariables ;
  mms:dataElementDescription "Describes anatomical location relevant for the event. Example: LEFT ARM for skin rash."^^xsd:string ;
  mms:dataElementLabel "Location of Event"^^xsd:string ;
  mms:dataElementName "--LOC"^^xsd:string ;
  mms:dataElementType "xsd:string"^^xsd:anySimpleType ;
  mms:ordinal "11"^^xsd:positiveInteger ;
  cdiscs:dataElementRole <http://rdf.cdisc.org/sdtm-1-2/schema#Classifier.RecordQualifier> ;
  cdiscs:dataElementType <http://rdf.cdisc.org/schema#Classifier.Character> ;
  sdtms-1-2:supportedBySDTMIG "true"^^xsd:boolean ;
  sdtms-1-2:supportedBySEND "true"^^xsd:boolean ;
.
<http://rdf.cdisc.org/sdtm-1-2/std#DE.Event.--MODIFY>
  rdf:type mms:DataElement ;
  mms:context sdtm-1-2:EventVariables ;
  mms:dataElementDescription "If the value for --TERM is modified for coding purposes, then the modified text is placed here."^^xsd:string ;
  mms:dataElementLabel "Modified Reported Term"^^xsd:string ;
  mms:dataElementName "--MODIFY"^^xsd:string ;
  mms:dataElementType "xsd:string"^^xsd:anySimpleType ;
  mms:ordinal "2"^^xsd:positiveInteger ;
  cdiscs:dataElementRole <http://rdf.cdisc.org/sdtm-1-2/schema#Classifier.SynonymQualifier> ;
  cdiscs:dataElementType <http://rdf.cdisc.org/schema#Classifier.Character> ;
  sdtms-1-2:qualifies <http://rdf.cdisc.org/sdtm-1-2/std#DE.Event.--TERM> ;
  sdtms-1-2:supportedBySDTMIG "true"^^xsd:boolean ;
  sdtms-1-2:supportedBySEND "true"^^xsd:boolean ;
.
<http://rdf.cdisc.org/sdtm-1-2/std#DE.Event.--OCCUR>
  rdf:type mms:DataElement ;
  mms:context sdtm-1-2:EventVariables ;
  mms:dataElementDescription "Used to record whether a pre-specified event occurred when information about the occurrence of a specific event is solicited."^^xsd:string ;
  mms:dataElementLabel "Occurrence"^^xsd:string ;
  mms:dataElementName "--OCCUR"^^xsd:string ;
  mms:dataElementType "xsd:string"^^xsd:anySimpleType ;
  mms:ordinal "7"^^xsd:positiveInteger ;
  cdiscs:dataElementRole <http://rdf.cdisc.org/sdtm-1-2/schema#Classifier.RecordQualifier> ;
  cdiscs:dataElementType <http://rdf.cdisc.org/schema#Classifier.Character> ;
  sdtms-1-2:supportedBySDTMIG "true"^^xsd:boolean ;
  sdtms-1-2:supportedBySEND "true"^^xsd:boolean ;
.
<http://rdf.cdisc.org/sdtm-1-2/std#DE.Event.--OUT>
  rdf:type mms:DataElement ;
  mms:context sdtm-1-2:EventVariables ;
  mms:dataElementDescription "Description of the outcome of an event. Examples: RECOVERED/RESOLVED, FATAL."^^xsd:string ;
  mms:dataElementLabel "Outcome of Event"^^xsd:string ;
  mms:dataElementName "--OUT"^^xsd:string ;
  mms:dataElementType "xsd:string"^^xsd:anySimpleType ;
  mms:ordinal "19"^^xsd:positiveInteger ;
  cdiscs:dataElementRole <http://rdf.cdisc.org/sdtm-1-2/schema#Classifier.RecordQualifier> ;
  cdiscs:dataElementType <http://rdf.cdisc.org/schema#Classifier.Character> ;
  sdtms-1-2:supportedBySDTMIG "true"^^xsd:boolean ;
  sdtms-1-2:supportedBySEND "true"^^xsd:boolean ;
.
<http://rdf.cdisc.org/sdtm-1-2/std#DE.Event.--PATT>
  rdf:type mms:DataElement ;
  mms:context sdtm-1-2:EventVariables ;
  mms:dataElementDescription "Used to indicate the pattern of the event over time. Examples: INTERMITTENT, CONTINUOUS, SINGLE EVENT."^^xsd:string ;
  mms:dataElementLabel "Pattern of Event"^^xsd:string ;
  mms:dataElementName "--PATT"^^xsd:string ;
  mms:dataElementType "xsd:string"^^xsd:anySimpleType ;
  mms:ordinal "18"^^xsd:positiveInteger ;
  cdiscs:dataElementRole <http://rdf.cdisc.org/sdtm-1-2/schema#Classifier.RecordQualifier> ;
  cdiscs:dataElementType <http://rdf.cdisc.org/schema#Classifier.Character> ;
  sdtms-1-2:supportedBySDTMIG "true"^^xsd:boolean ;
  sdtms-1-2:supportedBySEND "true"^^xsd:boolean ;
.
<http://rdf.cdisc.org/sdtm-1-2/std#DE.Event.--PRESP>
  rdf:type mms:DataElement ;
  mms:context sdtm-1-2:EventVariables ;
  mms:dataElementDescription "Used to indicate whether the event described by --TERM was pre-specified on a CRF. Value is Y for pre-specified events, null for spontaneously reported events."^^xsd:string ;
  mms:dataElementLabel "Pre-specified"^^xsd:string ;
  mms:dataElementName "--PRESP"^^xsd:string ;
  mms:dataElementType "xsd:string"^^xsd:anySimpleType ;
  mms:ordinal "6"^^xsd:positiveInteger ;
  cdiscs:dataElementRole <http://rdf.cdisc.org/sdtm-1-2/schema#Classifier.RecordQualifier> ;
  cdiscs:dataElementType <http://rdf.cdisc.org/schema#Classifier.Character> ;
  sdtms-1-2:supportedBySDTMIG "true"^^xsd:boolean ;
  sdtms-1-2:supportedBySEND "true"^^xsd:boolean ;
.
<http://rdf.cdisc.org/sdtm-1-2/std#DE.Event.--REASND>
  rdf:type mms:DataElement ;
  mms:context sdtm-1-2:EventVariables ;
  mms:dataElementDescription "Reason not done. Used in conjunction with --STAT when its value is NOT DONE."^^xsd:string ;
  mms:dataElementLabel "Reason Not Done"^^xsd:string ;
  mms:dataElementName "--REASND"^^xsd:string ;
  mms:dataElementType "xsd:string"^^xsd:anySimpleType ;
  mms:ordinal "9"^^xsd:positiveInteger ;
  cdiscs:dataElementRole <http://rdf.cdisc.org/sdtm-1-2/schema#Classifier.RecordQualifier> ;
  cdiscs:dataElementType <http://rdf.cdisc.org/schema#Classifier.Character> ;
  sdtms-1-2:supportedBySDTMIG "true"^^xsd:boolean ;
  sdtms-1-2:supportedBySEND "true"^^xsd:boolean ;
.
<http://rdf.cdisc.org/sdtm-1-2/std#DE.Event.--REL>
  rdf:type mms:DataElement ;
  mms:context sdtm-1-2:EventVariables ;
  mms:dataElementDescription "Records the investigator's opinion as to the causality of the event to the treatment. ICH E2A and E2B examples include NOT RELATED, UNLIKELY RELATED, POSSIBLY RELATED, RELATED."^^xsd:string ;
  mms:dataElementLabel "Causality"^^xsd:string ;
  mms:dataElementName "--REL"^^xsd:string ;
  mms:dataElementType "xsd:string"^^xsd:anySimpleType ;
  mms:ordinal "16"^^xsd:positiveInteger ;
  cdiscs:dataElementRole <http://rdf.cdisc.org/sdtm-1-2/schema#Classifier.RecordQualifier> ;
  cdiscs:dataElementType <http://rdf.cdisc.org/schema#Classifier.Character> ;
  sdtms-1-2:supportedBySDTMIG "true"^^xsd:boolean ;
  sdtms-1-2:supportedBySEND "true"^^xsd:boolean ;
.
<http://rdf.cdisc.org/sdtm-1-2/std#DE.Event.--RELNST>
  rdf:type mms:DataElement ;
  mms:context sdtm-1-2:EventVariables ;
  mms:dataElementDescription "An opinion as to whether the event may have been due to a treatment other than study drug. Example: \"MORE LIKELY RELATED TO ASPIRIN USE.\""^^xsd:string ;
  mms:dataElementLabel "Relationship to Non-Study Treatment"^^xsd:string ;
  mms:dataElementName "--RELNST"^^xsd:string ;
  mms:dataElementType "xsd:string"^^xsd:anySimpleType ;
  mms:ordinal "17"^^xsd:positiveInteger ;
  cdiscs:dataElementRole <http://rdf.cdisc.org/sdtm-1-2/schema#Classifier.RecordQualifier> ;
  cdiscs:dataElementType <http://rdf.cdisc.org/schema#Classifier.Character> ;
  sdtms-1-2:supportedBySDTMIG "true"^^xsd:boolean ;
  sdtms-1-2:supportedBySEND "true"^^xsd:boolean ;
.
<http://rdf.cdisc.org/sdtm-1-2/std#DE.Event.--SCAN>
  rdf:type mms:DataElement ;
  mms:context sdtm-1-2:EventVariables ;
  mms:dataElementDescription "Was the event associated with the development of cancer? Valid values are \"Y\" and \"N\"."^^xsd:string ;
  mms:dataElementLabel "Involves Cancer"^^xsd:string ;
  mms:dataElementName "--SCAN"^^xsd:string ;
  mms:dataElementType "xsd:string"^^xsd:anySimpleType ;
  mms:ordinal "20"^^xsd:positiveInteger ;
  cdiscs:dataElementRole <http://rdf.cdisc.org/sdtm-1-2/schema#Classifier.RecordQualifier> ;
  cdiscs:dataElementType <http://rdf.cdisc.org/schema#Classifier.Character> ;
  sdtms-1-2:supportedBySDTMIG "true"^^xsd:boolean ;
  sdtms-1-2:supportedBySEND "true"^^xsd:boolean ;
.
<http://rdf.cdisc.org/sdtm-1-2/std#DE.Event.--SCAT>
  rdf:type mms:DataElement ;
  mms:context sdtm-1-2:EventVariables ;
  mms:dataElementDescription "Used to define a further categorization of --CAT values."^^xsd:string ;
  mms:dataElementLabel "Subcategory"^^xsd:string ;
  mms:dataElementName "--SCAT"^^xsd:string ;
  mms:dataElementType "xsd:string"^^xsd:anySimpleType ;
  mms:ordinal "5"^^xsd:positiveInteger ;
  cdiscs:dataElementRole <http://rdf.cdisc.org/sdtm-1-2/schema#Classifier.GroupingQualifier> ;
  cdiscs:dataElementType <http://rdf.cdisc.org/schema#Classifier.Character> ;
  sdtms-1-2:supportedBySDTMIG "true"^^xsd:boolean ;
  sdtms-1-2:supportedBySEND "true"^^xsd:boolean ;
.
<http://rdf.cdisc.org/sdtm-1-2/std#DE.Event.--SCONG>
  rdf:type mms:DataElement ;
  mms:context sdtm-1-2:EventVariables ;
  mms:dataElementDescription "Was the event associated with congenital anomaly or birth defect? Valid values are \"Y\" and \"N\"."^^xsd:string ;
  mms:dataElementLabel "Congenital Anomaly or Birth Defect"^^xsd:string ;
  mms:dataElementName "--SCONG"^^xsd:string ;
  mms:dataElementType "xsd:string"^^xsd:anySimpleType ;
  mms:ordinal "21"^^xsd:positiveInteger ;
  cdiscs:dataElementRole <http://rdf.cdisc.org/sdtm-1-2/schema#Classifier.RecordQualifier> ;
  cdiscs:dataElementType <http://rdf.cdisc.org/schema#Classifier.Character> ;
  sdtms-1-2:supportedBySDTMIG "true"^^xsd:boolean ;
  sdtms-1-2:supportedBySEND "true"^^xsd:boolean ;
.
<http://rdf.cdisc.org/sdtm-1-2/std#DE.Event.--SDISAB>
  rdf:type mms:DataElement ;
  mms:context sdtm-1-2:EventVariables ;
  mms:dataElementDescription "Did the event result in persistent or significant disability/incapacity? Valid values are \"Y\" and \"N\"."^^xsd:string ;
  mms:dataElementLabel "Persist or Signif Disability/Incapacity"^^xsd:string ;
  mms:dataElementName "--SDISAB"^^xsd:string ;
  mms:dataElementType "xsd:string"^^xsd:anySimpleType ;
  mms:ordinal "22"^^xsd:positiveInteger ;
  cdiscs:dataElementRole <http://rdf.cdisc.org/sdtm-1-2/schema#Classifier.RecordQualifier> ;
  cdiscs:dataElementType <http://rdf.cdisc.org/schema#Classifier.Character> ;
  sdtms-1-2:supportedBySDTMIG "true"^^xsd:boolean ;
  sdtms-1-2:supportedBySEND "true"^^xsd:boolean ;
.
<http://rdf.cdisc.org/sdtm-1-2/std#DE.Event.--SDTH>
  rdf:type mms:DataElement ;
  mms:context sdtm-1-2:EventVariables ;
  mms:dataElementDescription "Did the event result in death? Valid values are \"Y\" and \"N\"."^^xsd:string ;
  mms:dataElementLabel "Results in Death"^^xsd:string ;
  mms:dataElementName "--SDTH"^^xsd:string ;
  mms:dataElementType "xsd:string"^^xsd:anySimpleType ;
  mms:ordinal "23"^^xsd:positiveInteger ;
  cdiscs:dataElementRole <http://rdf.cdisc.org/sdtm-1-2/schema#Classifier.RecordQualifier> ;
  cdiscs:dataElementType <http://rdf.cdisc.org/schema#Classifier.Character> ;
  sdtms-1-2:supportedBySDTMIG "true"^^xsd:boolean ;
  sdtms-1-2:supportedBySEND "true"^^xsd:boolean ;
.
<http://rdf.cdisc.org/sdtm-1-2/std#DE.Event.--SER>
  rdf:type mms:DataElement ;
  mms:context sdtm-1-2:EventVariables ;
  mms:dataElementDescription "Is this is a serious event? Valid values are \"Y\" and \"N\"."^^xsd:string ;
  mms:dataElementLabel "Serious Event"^^xsd:string ;
  mms:dataElementName "--SER"^^xsd:string ;
  mms:dataElementType "xsd:string"^^xsd:anySimpleType ;
  mms:ordinal "13"^^xsd:positiveInteger ;
  cdiscs:dataElementRole <http://rdf.cdisc.org/sdtm-1-2/schema#Classifier.RecordQualifier> ;
  cdiscs:dataElementType <http://rdf.cdisc.org/schema#Classifier.Character> ;
  sdtms-1-2:supportedBySDTMIG "true"^^xsd:boolean ;
  sdtms-1-2:supportedBySEND "true"^^xsd:boolean ;
.
<http://rdf.cdisc.org/sdtm-1-2/std#DE.Event.--SEV>
  rdf:type mms:DataElement ;
  mms:context sdtm-1-2:EventVariables ;
  mms:dataElementDescription "The severity or intensity of the event. Examples: MILD, MODERATE, SEVERE."^^xsd:string ;
  mms:dataElementLabel "Severity/Intensity"^^xsd:string ;
  mms:dataElementName "--SEV"^^xsd:string ;
  mms:dataElementType "xsd:string"^^xsd:anySimpleType ;
  mms:ordinal "12"^^xsd:positiveInteger ;
  cdiscs:dataElementRole <http://rdf.cdisc.org/sdtm-1-2/schema#Classifier.RecordQualifier> ;
  cdiscs:dataElementType <http://rdf.cdisc.org/schema#Classifier.Character> ;
  sdtms-1-2:supportedBySDTMIG "true"^^xsd:boolean ;
  sdtms-1-2:supportedBySEND "true"^^xsd:boolean ;
.
<http://rdf.cdisc.org/sdtm-1-2/std#DE.Event.--SHOSP>
  rdf:type mms:DataElement ;
  mms:context sdtm-1-2:EventVariables ;
  mms:dataElementDescription "Did the event require or prolong hospitalization? Valid values are \"Y\" and \"N\"."^^xsd:string ;
  mms:dataElementLabel "Requires or Prolongs Hospitalization"^^xsd:string ;
  mms:dataElementName "--SHOSP"^^xsd:string ;
  mms:dataElementType "xsd:string"^^xsd:anySimpleType ;
  mms:ordinal "24"^^xsd:positiveInteger ;
  cdiscs:dataElementRole <http://rdf.cdisc.org/sdtm-1-2/schema#Classifier.RecordQualifier> ;
  cdiscs:dataElementType <http://rdf.cdisc.org/schema#Classifier.Character> ;
  sdtms-1-2:supportedBySDTMIG "true"^^xsd:boolean ;
  sdtms-1-2:supportedBySEND "true"^^xsd:boolean ;
.
<http://rdf.cdisc.org/sdtm-1-2/std#DE.Event.--SLIFE>
  rdf:type mms:DataElement ;
  mms:context sdtm-1-2:EventVariables ;
  mms:dataElementDescription "Was the event life threatening? Valid values are \"Y\" and \"N\"."^^xsd:string ;
  mms:dataElementLabel "Is Life Threatening"^^xsd:string ;
  mms:dataElementName "--SLIFE"^^xsd:string ;
  mms:dataElementType "xsd:string"^^xsd:anySimpleType ;
  mms:ordinal "25"^^xsd:positiveInteger ;
  cdiscs:dataElementRole <http://rdf.cdisc.org/sdtm-1-2/schema#Classifier.RecordQualifier> ;
  cdiscs:dataElementType <http://rdf.cdisc.org/schema#Classifier.Character> ;
  sdtms-1-2:supportedBySDTMIG "true"^^xsd:boolean ;
  sdtms-1-2:supportedBySEND "true"^^xsd:boolean ;
.
<http://rdf.cdisc.org/sdtm-1-2/std#DE.Event.--SMIE>
  rdf:type mms:DataElement ;
  mms:context sdtm-1-2:EventVariables ;
  mms:dataElementDescription "Do additional categories for seriousness apply? Valid values are \"Y\" and \"N\"."^^xsd:string ;
  mms:dataElementLabel "Other Medically Important Serious Event"^^xsd:string ;
  mms:dataElementName "--SMIE"^^xsd:string ;
  mms:dataElementType "xsd:string"^^xsd:anySimpleType ;
  mms:ordinal "27"^^xsd:positiveInteger ;
  cdiscs:dataElementRole <http://rdf.cdisc.org/sdtm-1-2/schema#Classifier.RecordQualifier> ;
  cdiscs:dataElementType <http://rdf.cdisc.org/schema#Classifier.Character> ;
  sdtms-1-2:supportedBySDTMIG "true"^^xsd:boolean ;
  sdtms-1-2:supportedBySEND "true"^^xsd:boolean ;
.
<http://rdf.cdisc.org/sdtm-1-2/std#DE.Event.--SOD>
  rdf:type mms:DataElement ;
  mms:context sdtm-1-2:EventVariables ;
  mms:dataElementDescription "Did the event occur with an overdose? Valid values are \"Y\" and \"N\"."^^xsd:string ;
  mms:dataElementLabel "Occurred with Overdose"^^xsd:string ;
  mms:dataElementName "--SOD"^^xsd:string ;
  mms:dataElementType "xsd:string"^^xsd:anySimpleType ;
  mms:ordinal "26"^^xsd:positiveInteger ;
  cdiscs:dataElementRole <http://rdf.cdisc.org/sdtm-1-2/schema#Classifier.RecordQualifier> ;
  cdiscs:dataElementType <http://rdf.cdisc.org/schema#Classifier.Character> ;
  sdtms-1-2:supportedBySDTMIG "true"^^xsd:boolean ;
  sdtms-1-2:supportedBySEND "true"^^xsd:boolean ;
.
<http://rdf.cdisc.org/sdtm-1-2/std#DE.Event.--STAT>
  rdf:type mms:DataElement ;
  mms:context sdtm-1-2:EventVariables ;
  mms:dataElementDescription "Used to indicate when a question about the occurrence of a pre-specified event was not answered. Should be null or have a value of NOT DONE."^^xsd:string ;
  mms:dataElementLabel "Completion Status"^^xsd:string ;
  mms:dataElementName "--STAT"^^xsd:string ;
  mms:dataElementType "xsd:string"^^xsd:anySimpleType ;
  mms:ordinal "8"^^xsd:positiveInteger ;
  cdiscs:dataElementRole <http://rdf.cdisc.org/sdtm-1-2/schema#Classifier.RecordQualifier> ;
  cdiscs:dataElementType <http://rdf.cdisc.org/schema#Classifier.Character> ;
  sdtms-1-2:supportedBySDTMIG "true"^^xsd:boolean ;
  sdtms-1-2:supportedBySEND "true"^^xsd:boolean ;
.
<http://rdf.cdisc.org/sdtm-1-2/std#DE.Event.--TERM>
  rdf:type mms:DataElement ;
  mms:context sdtm-1-2:EventVariables ;
  mms:dataElementDescription "Topic variable for an event observation, which is the verbatim or pre-specified name of the event."^^xsd:string ;
  mms:dataElementLabel "Reported Term"^^xsd:string ;
  mms:dataElementName "--TERM"^^xsd:string ;
  mms:dataElementType "xsd:string"^^xsd:anySimpleType ;
  mms:ordinal "1"^^xsd:positiveInteger ;
  cdiscs:dataElementRole <http://rdf.cdisc.org/sdtm-1-2/schema#Classifier.TopicVariable> ;
  cdiscs:dataElementType <http://rdf.cdisc.org/schema#Classifier.Character> ;
  sdtms-1-2:supportedBySDTMIG "true"^^xsd:boolean ;
  sdtms-1-2:supportedBySEND "true"^^xsd:boolean ;
.
<http://rdf.cdisc.org/sdtm-1-2/std#DE.Event.--TOX>
  rdf:type mms:DataElement ;
  mms:context sdtm-1-2:EventVariables ;
  mms:dataElementDescription "Description of toxicity quantified by --TOXGR such as NCI CTCAE Short Name. Examples: HYPERCALCEMIA, HYPOCALCEMIA. Sponsor should specify which scale and version is used in the Sponsor Comments column of the Define.xml document."^^xsd:string ;
  mms:dataElementLabel "Toxicity"^^xsd:string ;
  mms:dataElementName "--TOX"^^xsd:string ;
  mms:dataElementType "xsd:string"^^xsd:anySimpleType ;
  mms:ordinal "29"^^xsd:positiveInteger ;
  cdiscs:dataElementRole <http://rdf.cdisc.org/sdtm-1-2/schema#Classifier.VariableQualifier> ;
  cdiscs:dataElementType <http://rdf.cdisc.org/schema#Classifier.Character> ;
  sdtms-1-2:qualifies <http://rdf.cdisc.org/sdtm-1-2/std#DE.Event.--TOXGR> ;
  sdtms-1-2:supportedBySDTMIG "true"^^xsd:boolean ;
  sdtms-1-2:supportedBySEND "true"^^xsd:boolean ;
.
<http://rdf.cdisc.org/sdtm-1-2/std#DE.Event.--TOXGR>
  rdf:type mms:DataElement ;
  mms:context sdtm-1-2:EventVariables ;
  mms:dataElementDescription "Records toxicity grade using a standard toxicity scale (such as the NCI CTCAE). Sponsor should specify which scale and version is used in the Sponsor Comments column of the Define.xml document."^^xsd:string ;
  mms:dataElementLabel "Toxicity Grade"^^xsd:string ;
  mms:dataElementName "--TOXGR"^^xsd:string ;
  mms:dataElementType "xsd:string"^^xsd:anySimpleType ;
  mms:ordinal "30"^^xsd:positiveInteger ;
  cdiscs:dataElementRole <http://rdf.cdisc.org/sdtm-1-2/schema#Classifier.RecordQualifier> ;
  cdiscs:dataElementType <http://rdf.cdisc.org/schema#Classifier.Character> ;
  sdtms-1-2:supportedBySDTMIG "true"^^xsd:boolean ;
  sdtms-1-2:supportedBySEND "true"^^xsd:boolean ;
.
<http://rdf.cdisc.org/sdtm-1-2/std#DE.Finding.--BLFL>
  rdf:type mms:DataElement ;
  mms:context sdtm-1-2:FindingVariables ;
  mms:dataElementDescription "Indicator used to identify a baseline value. Should be Y or null."^^xsd:string ;
  mms:dataElementLabel "Baseline Flag"^^xsd:string ;
  mms:dataElementName "--BLFL"^^xsd:string ;
  mms:dataElementType "xsd:string"^^xsd:anySimpleType ;
  mms:ordinal "29"^^xsd:positiveInteger ;
  cdiscs:dataElementRole <http://rdf.cdisc.org/sdtm-1-2/schema#Classifier.RecordQualifier> ;
  cdiscs:dataElementType <http://rdf.cdisc.org/schema#Classifier.Character> ;
  sdtms-1-2:supportedBySDTMIG "true"^^xsd:boolean ;
  sdtms-1-2:supportedBySEND "true"^^xsd:boolean ;
.
<http://rdf.cdisc.org/sdtm-1-2/std#DE.Finding.--BODSYS>
  rdf:type mms:DataElement ;
  mms:context sdtm-1-2:FindingVariables ;
  mms:dataElementDescription "Body System or Organ Class that is involved for a finding from the standard hierarchy for dictionary-coded results. Example: MedDRA SOC."^^xsd:string ;
  mms:dataElementLabel "Body System or Organ Class"^^xsd:string ;
  mms:dataElementName "--BODSYS"^^xsd:string ;
  mms:dataElementType "xsd:string"^^xsd:anySimpleType ;
  mms:ordinal "7"^^xsd:positiveInteger ;
  cdiscs:dataElementRole <http://rdf.cdisc.org/sdtm-1-2/schema#Classifier.RecordQualifier> ;
  cdiscs:dataElementType <http://rdf.cdisc.org/schema#Classifier.Character> ;
  sdtms-1-2:supportedBySDTMIG "true"^^xsd:boolean ;
  sdtms-1-2:supportedBySEND "true"^^xsd:boolean ;
.
<http://rdf.cdisc.org/sdtm-1-2/std#DE.Finding.--CAT>
  rdf:type mms:DataElement ;
  mms:context sdtm-1-2:FindingVariables ;
  mms:dataElementDescription "Used to define a category of topic-variable values. Examples: HEMATOLOGY, URINALYSIS, CHEMISTRY, HAMILTON DEPRESSION SCALE, SF36."^^xsd:string ;
  mms:dataElementLabel "Category"^^xsd:string ;
  mms:dataElementName "--CAT"^^xsd:string ;
  mms:dataElementType "xsd:string"^^xsd:anySimpleType ;
  mms:ordinal "4"^^xsd:positiveInteger ;
  cdiscs:dataElementRole <http://rdf.cdisc.org/sdtm-1-2/schema#Classifier.GroupingQualifier> ;
  cdiscs:dataElementType <http://rdf.cdisc.org/schema#Classifier.Character> ;
  sdtms-1-2:supportedBySDTMIG "true"^^xsd:boolean ;
  sdtms-1-2:supportedBySEND "true"^^xsd:boolean ;
.
<http://rdf.cdisc.org/sdtm-1-2/std#DE.Finding.--DRVFL>
  rdf:type mms:DataElement ;
  mms:context sdtm-1-2:FindingVariables ;
  mms:dataElementDescription "Used to indicate a derived record (e.g., a record that represents the average of other records such as a computed baseline). Should be Y or null."^^xsd:string ;
  mms:dataElementLabel "Derived Flag"^^xsd:string ;
  mms:dataElementName "--DRVFL"^^xsd:string ;
  mms:dataElementType "xsd:string"^^xsd:anySimpleType ;
  mms:ordinal "31"^^xsd:positiveInteger ;
  cdiscs:dataElementRole <http://rdf.cdisc.org/sdtm-1-2/schema#Classifier.RecordQualifier> ;
  cdiscs:dataElementType <http://rdf.cdisc.org/schema#Classifier.Character> ;
  sdtms-1-2:supportedBySDTMIG "true"^^xsd:boolean ;
  sdtms-1-2:supportedBySEND "true"^^xsd:boolean ;
.
<http://rdf.cdisc.org/sdtm-1-2/std#DE.Finding.--DTHREL>
  rdf:type mms:DataElement ;
  mms:context sdtm-1-2:FindingVariables ;
  mms:dataElementDescription "Describes the relationship of a particular finding to the death of a subject."^^xsd:string ;
  mms:dataElementLabel "Relationship to Death"^^xsd:string ;
  mms:dataElementName "--DTHREL"^^xsd:string ;
  mms:dataElementType "xsd:string"^^xsd:anySimpleType ;
  mms:ordinal "36"^^xsd:positiveInteger ;
  cdiscs:dataElementRole <http://rdf.cdisc.org/sdtm-1-2/schema#Classifier.RecordQualifier> ;
  cdiscs:dataElementType <http://rdf.cdisc.org/schema#Classifier.Character> ;
  sdtms-1-2:supportedBySDTMIG "false"^^xsd:boolean ;
  sdtms-1-2:supportedBySEND "true"^^xsd:boolean ;
.
<http://rdf.cdisc.org/sdtm-1-2/std#DE.Finding.--EVAL>
  rdf:type mms:DataElement ;
  mms:context sdtm-1-2:FindingVariables ;
  mms:dataElementDescription "Role of the person who provided the evaluation. Used only for results that are subjective (e.g., assigned by a person or a group). Examples: ADJUDICATION COMMITTEE, VENDOR."^^xsd:string ;
  mms:dataElementLabel "Evaluator"^^xsd:string ;
  mms:dataElementName "--EVAL"^^xsd:string ;
  mms:dataElementType "xsd:string"^^xsd:anySimpleType ;
  mms:ordinal "32"^^xsd:positiveInteger ;
  cdiscs:dataElementRole <http://rdf.cdisc.org/sdtm-1-2/schema#Classifier.RecordQualifier> ;
  cdiscs:dataElementType <http://rdf.cdisc.org/schema#Classifier.Character> ;
  sdtms-1-2:supportedBySDTMIG "true"^^xsd:boolean ;
  sdtms-1-2:supportedBySEND "true"^^xsd:boolean ;
.
<http://rdf.cdisc.org/sdtm-1-2/std#DE.Finding.--FAST>
  rdf:type mms:DataElement ;
  mms:context sdtm-1-2:FindingVariables ;
  mms:dataElementDescription "Indicator used to identify fasting status. Valid values include Y, N, U or null if not relevant."^^xsd:string ;
  mms:dataElementLabel "Fasting Status"^^xsd:string ;
  mms:dataElementName "--FAST"^^xsd:string ;
  mms:dataElementType "xsd:string"^^xsd:anySimpleType ;
  mms:ordinal "30"^^xsd:positiveInteger ;
  cdiscs:dataElementRole <http://rdf.cdisc.org/sdtm-1-2/schema#Classifier.RecordQualifier> ;
  cdiscs:dataElementType <http://rdf.cdisc.org/schema#Classifier.Character> ;
  sdtms-1-2:supportedBySDTMIG "true"^^xsd:boolean ;
  sdtms-1-2:supportedBySEND "true"^^xsd:boolean ;
.
<http://rdf.cdisc.org/sdtm-1-2/std#DE.Finding.--LLOQ>
  rdf:type mms:DataElement ;
  mms:context sdtm-1-2:FindingVariables ;
  mms:dataElementDescription "Indicates the lower limit of quantitation for an assay. Units will be those used for --STRESU."^^xsd:string ;
  mms:dataElementLabel "Lower Limit of Quantitation"^^xsd:string ;
  mms:dataElementName "--LLOQ"^^xsd:string ;
  mms:dataElementType "xsd:decimal"^^xsd:anySimpleType ;
  mms:ordinal "37"^^xsd:positiveInteger ;
  cdiscs:dataElementRole <http://rdf.cdisc.org/sdtm-1-2/schema#Classifier.VariableQualifier> ;
  cdiscs:dataElementType <http://rdf.cdisc.org/schema#Classifier.Numeric> ;
  sdtms-1-2:qualifies <http://rdf.cdisc.org/sdtm-1-2/std#DE.Finding.--STRESN> ;
  sdtms-1-2:supportedBySDTMIG "true"^^xsd:boolean ;
  sdtms-1-2:supportedBySEND "true"^^xsd:boolean ;
.
<http://rdf.cdisc.org/sdtm-1-2/std#DE.Finding.--LOC>
  rdf:type mms:DataElement ;
  mms:context sdtm-1-2:FindingVariables ;
  mms:dataElementDescription "Location relevant to the collection of the measurement. Example: RECTAL for temperature, LEFT ARM for blood pressure or V1 for an ECG lead."^^xsd:string ;
  mms:dataElementLabel "Location Used for the Measurement"^^xsd:string ;
  mms:dataElementName "--LOC"^^xsd:string ;
  mms:dataElementType "xsd:string"^^xsd:anySimpleType ;
  mms:ordinal "27"^^xsd:positiveInteger ;
  cdiscs:dataElementRole <http://rdf.cdisc.org/sdtm-1-2/schema#Classifier.RecordQualifier> ;
  cdiscs:dataElementType <http://rdf.cdisc.org/schema#Classifier.Character> ;
  sdtms-1-2:supportedBySDTMIG "true"^^xsd:boolean ;
  sdtms-1-2:supportedBySEND "true"^^xsd:boolean ;
.
<http://rdf.cdisc.org/sdtm-1-2/std#DE.Finding.--LOINC>
  rdf:type mms:DataElement ;
  mms:context sdtm-1-2:FindingVariables ;
  mms:dataElementDescription "Logical Observation Identifiers Names and Codes (LOINC) code for the topic variable such as a lab test."^^xsd:string ;
  mms:dataElementLabel "LOINC Code"^^xsd:string ;
  mms:dataElementName "--LOINC"^^xsd:string ;
  mms:dataElementType "xsd:string"^^xsd:anySimpleType ;
  mms:ordinal "24"^^xsd:positiveInteger ;
  cdiscs:dataElementRole <http://rdf.cdisc.org/sdtm-1-2/schema#Classifier.SynonymQualifier> ;
  cdiscs:dataElementType <http://rdf.cdisc.org/schema#Classifier.Character> ;
  sdtms-1-2:qualifies <http://rdf.cdisc.org/sdtm-1-2/std#DE.Finding.--TESTCD> ;
  sdtms-1-2:supportedBySDTMIG "true"^^xsd:boolean ;
  sdtms-1-2:supportedBySEND "true"^^xsd:boolean ;
.
<http://rdf.cdisc.org/sdtm-1-2/std#DE.Finding.--METHOD>
  rdf:type mms:DataElement ;
  mms:context sdtm-1-2:FindingVariables ;
  mms:dataElementDescription "Method of the test or examination. Examples: EIA (Enzyme Immunoassay), ELECTROPHORESIS, DIPSTICK."^^xsd:string ;
  mms:dataElementLabel "Method of Test or Examination"^^xsd:string ;
  mms:dataElementName "--METHOD"^^xsd:string ;
  mms:dataElementType "xsd:string"^^xsd:anySimpleType ;
  mms:ordinal "28"^^xsd:positiveInteger ;
  cdiscs:dataElementRole <http://rdf.cdisc.org/sdtm-1-2/schema#Classifier.RecordQualifier> ;
  cdiscs:dataElementType <http://rdf.cdisc.org/schema#Classifier.Character> ;
  sdtms-1-2:supportedBySDTMIG "true"^^xsd:boolean ;
  sdtms-1-2:supportedBySEND "true"^^xsd:boolean ;
.
<http://rdf.cdisc.org/sdtm-1-2/std#DE.Finding.--MODIFY>
  rdf:type mms:DataElement ;
  mms:context sdtm-1-2:FindingVariables ;
  mms:dataElementDescription "If the value of --ORRES is modified for coding purposes, then the modified text is placed here."^^xsd:string ;
  mms:dataElementLabel "Modified Term"^^xsd:string ;
  mms:dataElementName "--MODIFY"^^xsd:string ;
  mms:dataElementType "xsd:string"^^xsd:anySimpleType ;
  mms:ordinal "3"^^xsd:positiveInteger ;
  cdiscs:dataElementRole <http://rdf.cdisc.org/sdtm-1-2/schema#Classifier.SynonymQualifier> ;
  cdiscs:dataElementType <http://rdf.cdisc.org/schema#Classifier.Character> ;
  sdtms-1-2:qualifies <http://rdf.cdisc.org/sdtm-1-2/std#DE.Finding.--ORRES> ;
  sdtms-1-2:supportedBySDTMIG "true"^^xsd:boolean ;
  sdtms-1-2:supportedBySEND "true"^^xsd:boolean ;
.
<http://rdf.cdisc.org/sdtm-1-2/std#DE.Finding.--NAM>
  rdf:type mms:DataElement ;
  mms:context sdtm-1-2:FindingVariables ;
  mms:dataElementDescription "Name or identifier of the vendor (e.g., laboratory) that provided the test results."^^xsd:string ;
  mms:dataElementLabel "Laboratory/Vendor Name"^^xsd:string ;
  mms:dataElementName "--NAM"^^xsd:string ;
  mms:dataElementType "xsd:string"^^xsd:anySimpleType ;
  mms:ordinal "23"^^xsd:positiveInteger ;
  cdiscs:dataElementRole <http://rdf.cdisc.org/sdtm-1-2/schema#Classifier.RecordQualifier> ;
  cdiscs:dataElementType <http://rdf.cdisc.org/schema#Classifier.Character> ;
  sdtms-1-2:supportedBySDTMIG "true"^^xsd:boolean ;
  sdtms-1-2:supportedBySEND "true"^^xsd:boolean ;
.
<http://rdf.cdisc.org/sdtm-1-2/std#DE.Finding.--NRIND>
  rdf:type mms:DataElement ;
  mms:context sdtm-1-2:FindingVariables ;
  mms:dataElementDescription "Used to indicate the value is outside the normal range or reference range. May be defined by --ORNRLO and --ORNRHI or other objective criteria. Examples: Y, N; HIGH, LOW; NORMAL; ABNORMAL."^^xsd:string ;
  mms:dataElementLabel "Normal/Reference Range Indicator"^^xsd:string ;
  mms:dataElementName "--NRIND"^^xsd:string ;
  mms:dataElementType "xsd:string"^^xsd:anySimpleType ;
  mms:ordinal "18"^^xsd:positiveInteger ;
  cdiscs:dataElementRole <http://rdf.cdisc.org/sdtm-1-2/schema#Classifier.VariableQualifier> ;
  cdiscs:dataElementType <http://rdf.cdisc.org/schema#Classifier.Character> ;
  sdtms-1-2:qualifies <http://rdf.cdisc.org/sdtm-1-2/std#DE.Finding.--ORRES> ;
  sdtms-1-2:supportedBySDTMIG "true"^^xsd:boolean ;
  sdtms-1-2:supportedBySEND "true"^^xsd:boolean ;
.
<http://rdf.cdisc.org/sdtm-1-2/std#DE.Finding.--ORNRHI>
  rdf:type mms:DataElement ;
  mms:context sdtm-1-2:FindingVariables ;
  mms:dataElementDescription "Upper end of normal range or reference range for results stored in --ORRES."^^xsd:string ;
  mms:dataElementLabel "Normal Range Upper Limit-Original Units"^^xsd:string ;
  mms:dataElementName "--ORNRHI"^^xsd:string ;
  mms:dataElementType "xsd:string"^^xsd:anySimpleType ;
  mms:ordinal "11"^^xsd:positiveInteger ;
  cdiscs:dataElementRole <http://rdf.cdisc.org/sdtm-1-2/schema#Classifier.VariableQualifier> ;
  cdiscs:dataElementType <http://rdf.cdisc.org/schema#Classifier.Character> ;
  sdtms-1-2:qualifies <http://rdf.cdisc.org/sdtm-1-2/std#DE.Finding.--ORRES> ;
  sdtms-1-2:supportedBySDTMIG "true"^^xsd:boolean ;
  sdtms-1-2:supportedBySEND "true"^^xsd:boolean ;
.
<http://rdf.cdisc.org/sdtm-1-2/std#DE.Finding.--ORNRLO>
  rdf:type mms:DataElement ;
  mms:context sdtm-1-2:FindingVariables ;
  mms:dataElementDescription "Lower end of normal range or reference range for results stored in --ORRES."^^xsd:string ;
  mms:dataElementLabel "Normal Range Lower Limit-Original Units"^^xsd:string ;
  mms:dataElementName "--ORNRLO"^^xsd:string ;
  mms:dataElementType "xsd:string"^^xsd:anySimpleType ;
  mms:ordinal "10"^^xsd:positiveInteger ;
  cdiscs:dataElementRole <http://rdf.cdisc.org/sdtm-1-2/schema#Classifier.VariableQualifier> ;
  cdiscs:dataElementType <http://rdf.cdisc.org/schema#Classifier.Character> ;
  sdtms-1-2:qualifies <http://rdf.cdisc.org/sdtm-1-2/std#DE.Finding.--ORRES> ;
  sdtms-1-2:supportedBySDTMIG "true"^^xsd:boolean ;
  sdtms-1-2:supportedBySEND "true"^^xsd:boolean ;
.
<http://rdf.cdisc.org/sdtm-1-2/std#DE.Finding.--ORRES>
  rdf:type mms:DataElement ;
  mms:context sdtm-1-2:FindingVariables ;
  mms:dataElementDescription "Result of the measurement or finding as originally received or collected. Examples: 120, <1, POS."^^xsd:string ;
  mms:dataElementLabel "Result or Finding in Original Units"^^xsd:string ;
  mms:dataElementName "--ORRES"^^xsd:string ;
  mms:dataElementType "xsd:string"^^xsd:anySimpleType ;
  mms:ordinal "8"^^xsd:positiveInteger ;
  cdiscs:dataElementRole <http://rdf.cdisc.org/sdtm-1-2/schema#Classifier.ResultQualifier> ;
  cdiscs:dataElementType <http://rdf.cdisc.org/schema#Classifier.Character> ;
  sdtms-1-2:supportedBySDTMIG "true"^^xsd:boolean ;
  sdtms-1-2:supportedBySEND "true"^^xsd:boolean ;
.
<http://rdf.cdisc.org/sdtm-1-2/std#DE.Finding.--ORRESU>
  rdf:type mms:DataElement ;
  mms:context sdtm-1-2:FindingVariables ;
  mms:dataElementDescription "Unit for --ORRES. Examples: IN, LB, kg/L."^^xsd:string ;
  mms:dataElementLabel "Original Units"^^xsd:string ;
  mms:dataElementName "--ORRESU"^^xsd:string ;
  mms:dataElementType "xsd:string"^^xsd:anySimpleType ;
  mms:ordinal "9"^^xsd:positiveInteger ;
  cdiscs:dataElementRole <http://rdf.cdisc.org/sdtm-1-2/schema#Classifier.VariableQualifier> ;
  cdiscs:dataElementType <http://rdf.cdisc.org/schema#Classifier.Character> ;
  sdtms-1-2:qualifies <http://rdf.cdisc.org/sdtm-1-2/std#DE.Finding.--ORRES> ;
  sdtms-1-2:supportedBySDTMIG "true"^^xsd:boolean ;
  sdtms-1-2:supportedBySEND "true"^^xsd:boolean ;
.
<http://rdf.cdisc.org/sdtm-1-2/std#DE.Finding.--POS>
  rdf:type mms:DataElement ;
  mms:context sdtm-1-2:FindingVariables ;
  mms:dataElementDescription "Position of the subject during a measurement or examination. Examples: SUPINE, STANDING, SITTING."^^xsd:string ;
  mms:dataElementLabel "Position of Subject During Observation"^^xsd:string ;
  mms:dataElementName "--POS"^^xsd:string ;
  mms:dataElementType "xsd:string"^^xsd:anySimpleType ;
  mms:ordinal "6"^^xsd:positiveInteger ;
  cdiscs:dataElementRole <http://rdf.cdisc.org/sdtm-1-2/schema#Classifier.RecordQualifier> ;
  cdiscs:dataElementType <http://rdf.cdisc.org/schema#Classifier.Character> ;
  sdtms-1-2:supportedBySDTMIG "true"^^xsd:boolean ;
  sdtms-1-2:supportedBySEND "true"^^xsd:boolean ;
.
<http://rdf.cdisc.org/sdtm-1-2/std#DE.Finding.--REASND>
  rdf:type mms:DataElement ;
  mms:context sdtm-1-2:FindingVariables ;
  mms:dataElementDescription "Reason not done. Used in conjunction with --STAT when value is NOT DONE."^^xsd:string ;
  mms:dataElementLabel "Reason Not Done"^^xsd:string ;
  mms:dataElementName "--REASND"^^xsd:string ;
  mms:dataElementType "xsd:string"^^xsd:anySimpleType ;
  mms:ordinal "21"^^xsd:positiveInteger ;
  cdiscs:dataElementRole <http://rdf.cdisc.org/sdtm-1-2/schema#Classifier.RecordQualifier> ;
  cdiscs:dataElementType <http://rdf.cdisc.org/schema#Classifier.Character> ;
  sdtms-1-2:supportedBySDTMIG "true"^^xsd:boolean ;
  sdtms-1-2:supportedBySEND "true"^^xsd:boolean ;
.
<http://rdf.cdisc.org/sdtm-1-2/std#DE.Finding.--RESCAT>
  rdf:type mms:DataElement ;
  mms:context sdtm-1-2:FindingVariables ;
  mms:dataElementDescription "Used to categorize the result of a finding. Example: MALIGNANT or BENIGN for tumor findings."^^xsd:string ;
  mms:dataElementLabel "Result Category"^^xsd:string ;
  mms:dataElementName "--RESCAT"^^xsd:string ;
  mms:dataElementType "xsd:string"^^xsd:anySimpleType ;
  mms:ordinal "19"^^xsd:positiveInteger ;
  cdiscs:dataElementRole <http://rdf.cdisc.org/sdtm-1-2/schema#Classifier.VariableQualifier> ;
  cdiscs:dataElementType <http://rdf.cdisc.org/schema#Classifier.Character> ;
  sdtms-1-2:qualifies <http://rdf.cdisc.org/sdtm-1-2/std#DE.Finding.--ORRES> ;
  sdtms-1-2:supportedBySDTMIG "true"^^xsd:boolean ;
  sdtms-1-2:supportedBySEND "true"^^xsd:boolean ;
.
<http://rdf.cdisc.org/sdtm-1-2/std#DE.Finding.--SCAT>
  rdf:type mms:DataElement ;
  mms:context sdtm-1-2:FindingVariables ;
  mms:dataElementDescription "Used to define a further categorization of --CAT values. Example: DIFFERENTIAL."^^xsd:string ;
  mms:dataElementLabel "Subcategory"^^xsd:string ;
  mms:dataElementName "--SCAT"^^xsd:string ;
  mms:dataElementType "xsd:string"^^xsd:anySimpleType ;
  mms:ordinal "5"^^xsd:positiveInteger ;
  cdiscs:dataElementRole <http://rdf.cdisc.org/sdtm-1-2/schema#Classifier.GroupingQualifier> ;
  cdiscs:dataElementType <http://rdf.cdisc.org/schema#Classifier.Character> ;
  sdtms-1-2:supportedBySDTMIG "true"^^xsd:boolean ;
  sdtms-1-2:supportedBySEND "true"^^xsd:boolean ;
.
<http://rdf.cdisc.org/sdtm-1-2/std#DE.Finding.--SEV>
  rdf:type mms:DataElement ;
  mms:context sdtm-1-2:FindingVariables ;
  mms:dataElementDescription "Describes the severity or intensity of a particular finding. Examples: MILD, MODERATE, SEVERE."^^xsd:string ;
  mms:dataElementLabel "Severity"^^xsd:string ;
  mms:dataElementName "--SEV"^^xsd:string ;
  mms:dataElementType "xsd:string"^^xsd:anySimpleType ;
  mms:ordinal "35"^^xsd:positiveInteger ;
  cdiscs:dataElementRole <http://rdf.cdisc.org/sdtm-1-2/schema#Classifier.RecordQualifier> ;
  cdiscs:dataElementType <http://rdf.cdisc.org/schema#Classifier.Character> ;
  sdtms-1-2:supportedBySDTMIG "true"^^xsd:boolean ;
  sdtms-1-2:supportedBySEND "true"^^xsd:boolean ;
.
<http://rdf.cdisc.org/sdtm-1-2/std#DE.Finding.--SPCCND>
  rdf:type mms:DataElement ;
  mms:context sdtm-1-2:FindingVariables ;
  mms:dataElementDescription "Defines the condition of the specimen. Example: CLOUDY."^^xsd:string ;
  mms:dataElementLabel "Specimen Condition"^^xsd:string ;
  mms:dataElementName "--SPCCND"^^xsd:string ;
  mms:dataElementType "xsd:string"^^xsd:anySimpleType ;
  mms:ordinal "26"^^xsd:positiveInteger ;
  cdiscs:dataElementRole <http://rdf.cdisc.org/sdtm-1-2/schema#Classifier.RecordQualifier> ;
  cdiscs:dataElementType <http://rdf.cdisc.org/schema#Classifier.Character> ;
  sdtms-1-2:supportedBySDTMIG "true"^^xsd:boolean ;
  sdtms-1-2:supportedBySEND "true"^^xsd:boolean ;
.
<http://rdf.cdisc.org/sdtm-1-2/std#DE.Finding.--SPEC>
  rdf:type mms:DataElement ;
  mms:context sdtm-1-2:FindingVariables ;
  mms:dataElementDescription "Defines the type of specimen used for a measurement. Examples: SERUM, PLASMA, URINE."^^xsd:string ;
  mms:dataElementLabel "Specimen Material Type"^^xsd:string ;
  mms:dataElementName "--SPEC"^^xsd:string ;
  mms:dataElementType "xsd:string"^^xsd:anySimpleType ;
  mms:ordinal "25"^^xsd:positiveInteger ;
  cdiscs:dataElementRole <http://rdf.cdisc.org/sdtm-1-2/schema#Classifier.RecordQualifier> ;
  cdiscs:dataElementType <http://rdf.cdisc.org/schema#Classifier.Character> ;
  sdtms-1-2:supportedBySDTMIG "true"^^xsd:boolean ;
  sdtms-1-2:supportedBySEND "true"^^xsd:boolean ;
.
<http://rdf.cdisc.org/sdtm-1-2/std#DE.Finding.--STAT>
  rdf:type mms:DataElement ;
  mms:context sdtm-1-2:FindingVariables ;
  mms:dataElementDescription "Used to indicate that a question was not asked or a test was not done, or a test was attempted but did not generate a result. Should be null or have a value of NOT DONE."^^xsd:string ;
  mms:dataElementLabel "Completion Status"^^xsd:string ;
  mms:dataElementName "--STAT"^^xsd:string ;
  mms:dataElementType "xsd:string"^^xsd:anySimpleType ;
  mms:ordinal "20"^^xsd:positiveInteger ;
  cdiscs:dataElementRole <http://rdf.cdisc.org/sdtm-1-2/schema#Classifier.RecordQualifier> ;
  cdiscs:dataElementType <http://rdf.cdisc.org/schema#Classifier.Character> ;
  sdtms-1-2:supportedBySDTMIG "true"^^xsd:boolean ;
  sdtms-1-2:supportedBySEND "true"^^xsd:boolean ;
.
<http://rdf.cdisc.org/sdtm-1-2/std#DE.Finding.--STNRC>
  rdf:type mms:DataElement ;
  mms:context sdtm-1-2:FindingVariables ;
  mms:dataElementDescription "Normal range or reference range for results stored in --STRESC that are character in ordinal or categorical scale. Example: Negative to Trace."^^xsd:string ;
  mms:dataElementLabel "Normal Range for Character Results"^^xsd:string ;
  mms:dataElementName "--STNRC"^^xsd:string ;
  mms:dataElementType "xsd:string"^^xsd:anySimpleType ;
  mms:ordinal "17"^^xsd:positiveInteger ;
  cdiscs:dataElementRole <http://rdf.cdisc.org/sdtm-1-2/schema#Classifier.VariableQualifier> ;
  cdiscs:dataElementType <http://rdf.cdisc.org/schema#Classifier.Character> ;
  sdtms-1-2:qualifies <http://rdf.cdisc.org/sdtm-1-2/std#DE.Finding.--STRESC> ;
  sdtms-1-2:supportedBySDTMIG "true"^^xsd:boolean ;
  sdtms-1-2:supportedBySEND "true"^^xsd:boolean ;
.
<http://rdf.cdisc.org/sdtm-1-2/std#DE.Finding.--STNRHI>
  rdf:type mms:DataElement ;
  mms:context sdtm-1-2:FindingVariables ;
  mms:dataElementDescription "Upper end of normal range or reference range for standardized results (e.g., --STRESC, --STRESN) represented in standardized units (--STRESU)."^^xsd:string ;
  mms:dataElementLabel "Normal Range Upper Limit-Standard Units"^^xsd:string ;
  mms:dataElementName "--STNRHI"^^xsd:string ;
  mms:dataElementType "xsd:decimal"^^xsd:anySimpleType ;
  mms:ordinal "16"^^xsd:positiveInteger ;
  cdiscs:dataElementRole <http://rdf.cdisc.org/sdtm-1-2/schema#Classifier.VariableQualifier> ;
  cdiscs:dataElementType <http://rdf.cdisc.org/schema#Classifier.Numeric> ;
  sdtms-1-2:qualifies <http://rdf.cdisc.org/sdtm-1-2/std#DE.Finding.--STRESC> ;
  sdtms-1-2:qualifies <http://rdf.cdisc.org/sdtm-1-2/std#DE.Finding.--STRESN> ;
  sdtms-1-2:supportedBySDTMIG "true"^^xsd:boolean ;
  sdtms-1-2:supportedBySEND "true"^^xsd:boolean ;
.
<http://rdf.cdisc.org/sdtm-1-2/std#DE.Finding.--STNRLO>
  rdf:type mms:DataElement ;
  mms:context sdtm-1-2:FindingVariables ;
  mms:dataElementDescription "Lower end of normal range or reference range for standardized results (e.g., --STRESC, --STRESN) represented in standardized units (--STRESU)."^^xsd:string ;
  mms:dataElementLabel "Normal Range Lower Limit-Standard Units"^^xsd:string ;
  mms:dataElementName "--STNRLO"^^xsd:string ;
  mms:dataElementType "xsd:decimal"^^xsd:anySimpleType ;
  mms:ordinal "15"^^xsd:positiveInteger ;
  cdiscs:dataElementRole <http://rdf.cdisc.org/sdtm-1-2/schema#Classifier.VariableQualifier> ;
  cdiscs:dataElementType <http://rdf.cdisc.org/schema#Classifier.Numeric> ;
  sdtms-1-2:qualifies <http://rdf.cdisc.org/sdtm-1-2/std#DE.Finding.--STRESC> ;
  sdtms-1-2:qualifies <http://rdf.cdisc.org/sdtm-1-2/std#DE.Finding.--STRESN> ;
  sdtms-1-2:supportedBySDTMIG "true"^^xsd:boolean ;
  sdtms-1-2:supportedBySEND "true"^^xsd:boolean ;
.
<http://rdf.cdisc.org/sdtm-1-2/std#DE.Finding.--STRESC>
  rdf:type mms:DataElement ;
  mms:context sdtm-1-2:FindingVariables ;
  mms:dataElementDescription "Contains the result value for all findings, copied or derived from --ORRES in a standard format or in standard units. --STRESC should store all results or findings in character format; if results are numeric, they should also be stored in numeric format in --STRESN. For example, if various tests have results \"NONE\", \"NEG\", and \"NEGATIVE\" in --ORRES and these results effectively have the same meaning, they could be represented in standard format in --STRESC as \"NEGATIVE\"."^^xsd:string ;
  mms:dataElementLabel "Result or Finding in Standard Format"^^xsd:string ;
  mms:dataElementName "--STRESC"^^xsd:string ;
  mms:dataElementType "xsd:string"^^xsd:anySimpleType ;
  mms:ordinal "12"^^xsd:positiveInteger ;
  cdiscs:dataElementRole <http://rdf.cdisc.org/sdtm-1-2/schema#Classifier.ResultQualifier> ;
  cdiscs:dataElementType <http://rdf.cdisc.org/schema#Classifier.Character> ;
  sdtms-1-2:supportedBySDTMIG "true"^^xsd:boolean ;
  sdtms-1-2:supportedBySEND "true"^^xsd:boolean ;
.
<http://rdf.cdisc.org/sdtm-1-2/std#DE.Finding.--STRESN>
  rdf:type mms:DataElement ;
  mms:context sdtm-1-2:FindingVariables ;
  mms:dataElementDescription "Used for continuous or numeric results or findings in standard format; copied in numeric format from --STRESC. --STRESN should store all numeric test results or findings."^^xsd:string ;
  mms:dataElementLabel "Numeric Result/Finding in Standard Units"^^xsd:string ;
  mms:dataElementName "--STRESN"^^xsd:string ;
  mms:dataElementType "xsd:decimal"^^xsd:anySimpleType ;
  mms:ordinal "13"^^xsd:positiveInteger ;
  cdiscs:dataElementRole <http://rdf.cdisc.org/sdtm-1-2/schema#Classifier.ResultQualifier> ;
  cdiscs:dataElementType <http://rdf.cdisc.org/schema#Classifier.Numeric> ;
  sdtms-1-2:supportedBySDTMIG "true"^^xsd:boolean ;
  sdtms-1-2:supportedBySEND "true"^^xsd:boolean ;
.
<http://rdf.cdisc.org/sdtm-1-2/std#DE.Finding.--STRESU>
  rdf:type mms:DataElement ;
  mms:context sdtm-1-2:FindingVariables ;
  mms:dataElementDescription "Standardized units used for --STRESC and --STRESN. Example: mol/L."^^xsd:string ;
  mms:dataElementLabel "Standard Units"^^xsd:string ;
  mms:dataElementName "--STRESU"^^xsd:string ;
  mms:dataElementType "xsd:string"^^xsd:anySimpleType ;
  mms:ordinal "14"^^xsd:positiveInteger ;
  cdiscs:dataElementRole <http://rdf.cdisc.org/sdtm-1-2/schema#Classifier.VariableQualifier> ;
  cdiscs:dataElementType <http://rdf.cdisc.org/schema#Classifier.Character> ;
  sdtms-1-2:qualifies <http://rdf.cdisc.org/sdtm-1-2/std#DE.Finding.--STRESC> ;
  sdtms-1-2:qualifies <http://rdf.cdisc.org/sdtm-1-2/std#DE.Finding.--STRESN> ;
  sdtms-1-2:supportedBySDTMIG "true"^^xsd:boolean ;
  sdtms-1-2:supportedBySEND "true"^^xsd:boolean ;
.
<http://rdf.cdisc.org/sdtm-1-2/std#DE.Finding.--TEST>
  rdf:type mms:DataElement ;
  mms:context sdtm-1-2:FindingVariables ;
  mms:dataElementDescription "Long name For --TESTCD. Examples: Platelet, Systolic Blood Pressure, Summary (Min) RR Duration, Eye Examination."^^xsd:string ;
  mms:dataElementLabel "Name of Measurement, Test or Examination"^^xsd:string ;
  mms:dataElementName "--TEST"^^xsd:string ;
  mms:dataElementType "xsd:string"^^xsd:anySimpleType ;
  mms:ordinal "2"^^xsd:positiveInteger ;
  cdiscs:dataElementRole <http://rdf.cdisc.org/sdtm-1-2/schema#Classifier.SynonymQualifier> ;
  cdiscs:dataElementType <http://rdf.cdisc.org/schema#Classifier.Character> ;
  sdtms-1-2:qualifies <http://rdf.cdisc.org/sdtm-1-2/std#DE.Finding.--TESTCD> ;
  sdtms-1-2:supportedBySDTMIG "true"^^xsd:boolean ;
  sdtms-1-2:supportedBySEND "true"^^xsd:boolean ;
.
<http://rdf.cdisc.org/sdtm-1-2/std#DE.Finding.--TESTCD>
  rdf:type mms:DataElement ;
  mms:context sdtm-1-2:FindingVariables ;
  mms:dataElementDescription "Short character value for --TEST used as a column name when converting a dataset from a vertical format to a horizontal format. The short value can be up to 8 characters. Examples: PLAT, SYSBP, RRMIN, EYEEXAM."^^xsd:string ;
  mms:dataElementLabel "Short Name of Measurement, Test or Examination"^^xsd:string ;
  mms:dataElementName "--TESTCD"^^xsd:string ;
  mms:dataElementType "xsd:string"^^xsd:anySimpleType ;
  mms:ordinal "1"^^xsd:positiveInteger ;
  cdiscs:dataElementRole <http://rdf.cdisc.org/sdtm-1-2/schema#Classifier.TopicVariable> ;
  cdiscs:dataElementType <http://rdf.cdisc.org/schema#Classifier.Character> ;
  sdtms-1-2:supportedBySDTMIG "true"^^xsd:boolean ;
  sdtms-1-2:supportedBySEND "true"^^xsd:boolean ;
.
<http://rdf.cdisc.org/sdtm-1-2/std#DE.Finding.--TOX>
  rdf:type mms:DataElement ;
  mms:context sdtm-1-2:FindingVariables ;
  mms:dataElementDescription "Description of toxicity quantified by --TOXGR such as NCI CTCAE Short Name. Examples: HYPERCALCEMIA, HYPOCALCEMIA. Sponsor should specify which scale and version is used in the Sponsor Comments column of the Define.xml document."^^xsd:string ;
  mms:dataElementLabel "Toxicity"^^xsd:string ;
  mms:dataElementName "--TOX"^^xsd:string ;
  mms:dataElementType "xsd:string"^^xsd:anySimpleType ;
  mms:ordinal "33"^^xsd:positiveInteger ;
  cdiscs:dataElementRole <http://rdf.cdisc.org/sdtm-1-2/schema#Classifier.VariableQualifier> ;
  cdiscs:dataElementType <http://rdf.cdisc.org/schema#Classifier.Character> ;
  sdtms-1-2:qualifies <http://rdf.cdisc.org/sdtm-1-2/std#DE.Finding.--TOXGR> ;
  sdtms-1-2:supportedBySDTMIG "true"^^xsd:boolean ;
  sdtms-1-2:supportedBySEND "true"^^xsd:boolean ;
.
<http://rdf.cdisc.org/sdtm-1-2/std#DE.Finding.--TOXGR>
  rdf:type mms:DataElement ;
  mms:context sdtm-1-2:FindingVariables ;
  mms:dataElementDescription "Records toxicity grade using a standard toxicity scale (such as the NCI CTCAE). Sponsor should specify which scale and version is used in the Sponsor Comments column of the Define data definition document. Example: 2."^^xsd:string ;
  mms:dataElementLabel "Toxicity Grade"^^xsd:string ;
  mms:dataElementName "--TOXGR"^^xsd:string ;
  mms:dataElementType "xsd:string"^^xsd:anySimpleType ;
  mms:ordinal "34"^^xsd:positiveInteger ;
  cdiscs:dataElementRole <http://rdf.cdisc.org/sdtm-1-2/schema#Classifier.VariableQualifier> ;
  cdiscs:dataElementType <http://rdf.cdisc.org/schema#Classifier.Character> ;
  sdtms-1-2:qualifies <http://rdf.cdisc.org/sdtm-1-2/std#DE.Finding.--STRESC> ;
  sdtms-1-2:supportedBySDTMIG "true"^^xsd:boolean ;
  sdtms-1-2:supportedBySEND "true"^^xsd:boolean ;
.
<http://rdf.cdisc.org/sdtm-1-2/std#DE.Finding.--XFN>
  rdf:type mms:DataElement ;
  mms:context sdtm-1-2:FindingVariables ;
  mms:dataElementDescription "Filename for an external file, such as one for an ECG waveform or a medical image."^^xsd:string ;
  mms:dataElementLabel "External Filename"^^xsd:string ;
  mms:dataElementName "--XFN"^^xsd:string ;
  mms:dataElementType "xsd:string"^^xsd:anySimpleType ;
  mms:ordinal "22"^^xsd:positiveInteger ;
  cdiscs:dataElementRole <http://rdf.cdisc.org/sdtm-1-2/schema#Classifier.RecordQualifier> ;
  cdiscs:dataElementType <http://rdf.cdisc.org/schema#Classifier.Character> ;
  sdtms-1-2:supportedBySDTMIG "true"^^xsd:boolean ;
  sdtms-1-2:supportedBySEND "true"^^xsd:boolean ;
.
<http://rdf.cdisc.org/sdtm-1-2/std#DE.FindingAbout.--OBJ>
  rdf:type mms:DataElement ;
  mms:context sdtm-1-2:FindingsAboutVariables ;
  mms:dataElementDescription "Used in domains modeled as Findings About Events or Findings About Interventions. Describes the event or intervention whose property is being measured in --TESTCD/--TEST. Example: an event of vomiting which has findings, where --OBJ = \"VOMIT\" and the volume of VOMIT is being measured where --TESTCD = \"VOLUME\"."^^xsd:string ;
  mms:dataElementLabel "Object of the Observation"^^xsd:string ;
  mms:dataElementName "--OBJ"^^xsd:string ;
  mms:dataElementType "xsd:string"^^xsd:anySimpleType ;
  mms:ordinal "1"^^xsd:positiveInteger ;
  cdiscs:dataElementRole <http://rdf.cdisc.org/sdtm-1-2/schema#Classifier.RecordQualifier> ;
  cdiscs:dataElementType <http://rdf.cdisc.org/schema#Classifier.Character> ;
  sdtms-1-2:supportedBySDTMIG "true"^^xsd:boolean ;
  sdtms-1-2:supportedBySEND "false"^^xsd:boolean ;
.
<http://rdf.cdisc.org/sdtm-1-2/std#DE.Identifier.--GRPID>
  rdf:type mms:DataElement ;
  mms:context sdtm-1-2:IdentifierVariables ;
  mms:dataElementDescription "Optional group identifier, used to link together a block of related records within a subject in a domain. Also used to link together a block of related records in the Trial Summary dataset."^^xsd:string ;
  mms:dataElementLabel "Group ID"^^xsd:string ;
  mms:dataElementName "--GRPID"^^xsd:string ;
  mms:dataElementType "xsd:string"^^xsd:anySimpleType ;
  mms:ordinal "5"^^xsd:positiveInteger ;
  cdiscs:dataElementRole <http://rdf.cdisc.org/sdtm-1-2/schema#Classifier.IdentifierVariable> ;
  cdiscs:dataElementType <http://rdf.cdisc.org/schema#Classifier.Character> ;
  sdtms-1-2:supportedBySDTMIG "true"^^xsd:boolean ;
  sdtms-1-2:supportedBySEND "true"^^xsd:boolean ;
.
<http://rdf.cdisc.org/sdtm-1-2/std#DE.Identifier.--REFID>
  rdf:type mms:DataElement ;
  mms:context sdtm-1-2:IdentifierVariables ;
  mms:dataElementDescription "Optional internal or external identifier such as lab specimen ID, or UUID for an ECG waveform or a medical image."^^xsd:string ;
  mms:dataElementLabel "Reference ID"^^xsd:string ;
  mms:dataElementName "--REFID"^^xsd:string ;
  mms:dataElementType "xsd:string"^^xsd:anySimpleType ;
  mms:ordinal "6"^^xsd:positiveInteger ;
  cdiscs:dataElementRole <http://rdf.cdisc.org/sdtm-1-2/schema#Classifier.IdentifierVariable> ;
  cdiscs:dataElementType <http://rdf.cdisc.org/schema#Classifier.Character> ;
  sdtms-1-2:supportedBySDTMIG "true"^^xsd:boolean ;
  sdtms-1-2:supportedBySEND "true"^^xsd:boolean ;
.
<http://rdf.cdisc.org/sdtm-1-2/std#DE.Identifier.--SEQ>
  rdf:type mms:DataElement ;
  mms:context sdtm-1-2:IdentifierVariables ;
  mms:dataElementDescription "Sequence number to ensure uniqueness of records within a dataset for a subject (or within a parameter, in the case of the Trial Summary domain). May be any valid number (including decimals) and does not have to start at 1. Should be assigned to be in a consistent chronological order."^^xsd:string ;
  mms:dataElementLabel "Sequence Number"^^xsd:string ;
  mms:dataElementName "--SEQ"^^xsd:string ;
  mms:dataElementType "xsd:decimal"^^xsd:anySimpleType ;
  mms:ordinal "4"^^xsd:positiveInteger ;
  cdiscs:dataElementRole <http://rdf.cdisc.org/sdtm-1-2/schema#Classifier.IdentifierVariable> ;
  cdiscs:dataElementType <http://rdf.cdisc.org/schema#Classifier.Numeric> ;
  sdtms-1-2:supportedBySDTMIG "true"^^xsd:boolean ;
  sdtms-1-2:supportedBySEND "true"^^xsd:boolean ;
.
<http://rdf.cdisc.org/sdtm-1-2/std#DE.Identifier.--SPID>
  rdf:type mms:DataElement ;
  mms:context sdtm-1-2:IdentifierVariables ;
  mms:dataElementDescription "Sponsor-defined identifier. Example: pre-printed line identifier on a Concomitant Medications page."^^xsd:string ;
  mms:dataElementLabel "Sponsor ID"^^xsd:string ;
  mms:dataElementName "--SPID"^^xsd:string ;
  mms:dataElementType "xsd:string"^^xsd:anySimpleType ;
  mms:ordinal "7"^^xsd:positiveInteger ;
  cdiscs:dataElementRole <http://rdf.cdisc.org/sdtm-1-2/schema#Classifier.IdentifierVariable> ;
  cdiscs:dataElementType <http://rdf.cdisc.org/schema#Classifier.Character> ;
  sdtms-1-2:supportedBySDTMIG "true"^^xsd:boolean ;
  sdtms-1-2:supportedBySEND "true"^^xsd:boolean ;
.
<http://rdf.cdisc.org/sdtm-1-2/std#DE.Identifier.DOMAIN>
  rdf:type mms:DataElement ;
  mms:context sdtm-1-2:IdentifierVariables ;
  mms:dataElementDescription "Two-character abbreviation for the domain most relevant to the observation. The Domain abbreviation is also used as a prefix for variables to ensure uniqueness when datasets are merged."^^xsd:string ;
  mms:dataElementLabel "Domain Abbreviation"^^xsd:string ;
  mms:dataElementName "DOMAIN"^^xsd:string ;
  mms:dataElementType "xsd:string"^^xsd:anySimpleType ;
  mms:ordinal "2"^^xsd:positiveInteger ;
  cdiscs:dataElementRole <http://rdf.cdisc.org/sdtm-1-2/schema#Classifier.IdentifierVariable> ;
  cdiscs:dataElementType <http://rdf.cdisc.org/schema#Classifier.Character> ;
  sdtms-1-2:supportedBySDTMIG "true"^^xsd:boolean ;
  sdtms-1-2:supportedBySEND "true"^^xsd:boolean ;
.
<http://rdf.cdisc.org/sdtm-1-2/std#DE.Identifier.STUDYID>
  rdf:type mms:DataElement ;
  mms:context sdtm-1-2:IdentifierVariables ;
  mms:dataElementDescription "Unique identifier for a study."^^xsd:string ;
  mms:dataElementLabel "Study Identifier"^^xsd:string ;
  mms:dataElementName "STUDYID"^^xsd:string ;
  mms:dataElementType "xsd:string"^^xsd:anySimpleType ;
  mms:ordinal "1"^^xsd:positiveInteger ;
  cdiscs:dataElementRole <http://rdf.cdisc.org/sdtm-1-2/schema#Classifier.IdentifierVariable> ;
  cdiscs:dataElementType <http://rdf.cdisc.org/schema#Classifier.Character> ;
  sdtms-1-2:supportedBySDTMIG "true"^^xsd:boolean ;
  sdtms-1-2:supportedBySEND "true"^^xsd:boolean ;
.
<http://rdf.cdisc.org/sdtm-1-2/std#DE.Identifier.USUBJID>
  rdf:type mms:DataElement ;
  mms:context sdtm-1-2:IdentifierVariables ;
  mms:dataElementDescription "Identifier used to uniquely identify a subject across all studies for all applications or submissions involving the product."^^xsd:string ;
  mms:dataElementLabel "Unique Subject Identifier"^^xsd:string ;
  mms:dataElementName "USUBJID"^^xsd:string ;
  mms:dataElementType "xsd:string"^^xsd:anySimpleType ;
  mms:ordinal "3"^^xsd:positiveInteger ;
  cdiscs:dataElementRole <http://rdf.cdisc.org/sdtm-1-2/schema#Classifier.IdentifierVariable> ;
  cdiscs:dataElementType <http://rdf.cdisc.org/schema#Classifier.Character> ;
  sdtms-1-2:supportedBySDTMIG "true"^^xsd:boolean ;
  sdtms-1-2:supportedBySEND "true"^^xsd:boolean ;
.
<http://rdf.cdisc.org/sdtm-1-2/std#DE.Intervention.--ADJ>
  rdf:type mms:DataElement ;
  mms:context sdtm-1-2:InterventionVariables ;
  mms:dataElementDescription "Describes reason or explanation of why a dose is adjusted. Examples ADVERSE EVENT, INSUFFICIENT RESPONSE, NON-MEDICAL REASON."^^xsd:string ;
  mms:dataElementLabel "Reason for Dose Adjustment"^^xsd:string ;
  mms:dataElementName "--ADJ"^^xsd:string ;
  mms:dataElementType "xsd:string"^^xsd:anySimpleType ;
  mms:ordinal "26"^^xsd:positiveInteger ;
  cdiscs:dataElementRole <http://rdf.cdisc.org/sdtm-1-2/schema#Classifier.RecordQualifier> ;
  cdiscs:dataElementType <http://rdf.cdisc.org/schema#Classifier.Character> ;
  sdtms-1-2:supportedBySDTMIG "true"^^xsd:boolean ;
  sdtms-1-2:supportedBySEND "true"^^xsd:boolean ;
.
<http://rdf.cdisc.org/sdtm-1-2/std#DE.Intervention.--CAT>
  rdf:type mms:DataElement ;
  mms:context sdtm-1-2:InterventionVariables ;
  mms:dataElementDescription "Used to define a category of topic-variable values."^^xsd:string ;
  mms:dataElementLabel "Category"^^xsd:string ;
  mms:dataElementName "--CAT"^^xsd:string ;
  mms:dataElementType "xsd:string"^^xsd:anySimpleType ;
  mms:ordinal "4"^^xsd:positiveInteger ;
  cdiscs:dataElementRole <http://rdf.cdisc.org/sdtm-1-2/schema#Classifier.GroupingQualifier> ;
  cdiscs:dataElementType <http://rdf.cdisc.org/schema#Classifier.Character> ;
  sdtms-1-2:supportedBySDTMIG "true"^^xsd:boolean ;
  sdtms-1-2:supportedBySEND "true"^^xsd:boolean ;
.
<http://rdf.cdisc.org/sdtm-1-2/std#DE.Intervention.--CLAS>
  rdf:type mms:DataElement ;
  mms:context sdtm-1-2:InterventionVariables ;
  mms:dataElementDescription "Class for a medication or treatment, often obtained from a coding dictionary."^^xsd:string ;
  mms:dataElementLabel "Class"^^xsd:string ;
  mms:dataElementName "--CLAS"^^xsd:string ;
  mms:dataElementType "xsd:string"^^xsd:anySimpleType ;
  mms:ordinal "11"^^xsd:positiveInteger ;
  cdiscs:dataElementRole <http://rdf.cdisc.org/sdtm-1-2/schema#Classifier.VariableQualifier> ;
  cdiscs:dataElementType <http://rdf.cdisc.org/schema#Classifier.Character> ;
  sdtms-1-2:qualifies <http://rdf.cdisc.org/sdtm-1-2/std#DE.Intervention.--TRT> ;
  sdtms-1-2:supportedBySDTMIG "true"^^xsd:boolean ;
  sdtms-1-2:supportedBySEND "true"^^xsd:boolean ;
.
<http://rdf.cdisc.org/sdtm-1-2/std#DE.Intervention.--CLASCD>
  rdf:type mms:DataElement ;
  mms:context sdtm-1-2:InterventionVariables ;
  mms:dataElementDescription "Used to represent code for --CLAS."^^xsd:string ;
  mms:dataElementLabel "Class Code"^^xsd:string ;
  mms:dataElementName "--CLASCD"^^xsd:string ;
  mms:dataElementType "xsd:string"^^xsd:anySimpleType ;
  mms:ordinal "12"^^xsd:positiveInteger ;
  cdiscs:dataElementRole <http://rdf.cdisc.org/sdtm-1-2/schema#Classifier.VariableQualifier> ;
  cdiscs:dataElementType <http://rdf.cdisc.org/schema#Classifier.Character> ;
  sdtms-1-2:qualifies <http://rdf.cdisc.org/sdtm-1-2/std#DE.Intervention.--TRT> ;
  sdtms-1-2:supportedBySDTMIG "true"^^xsd:boolean ;
  sdtms-1-2:supportedBySEND "true"^^xsd:boolean ;
.
<http://rdf.cdisc.org/sdtm-1-2/std#DE.Intervention.--DECOD>
  rdf:type mms:DataElement ;
  mms:context sdtm-1-2:InterventionVariables ;
  mms:dataElementDescription "Standardized or dictionary-derived name of the topic variable, --TRT, or the modified topic variable (--MODIFY), if applicable. Equivalent to the generic drug name in WHO Drug, or a term in SNOMED, ICD9, or other published or sponsor-defined dictionaries."^^xsd:string ;
  mms:dataElementLabel "Standardized Treatment Name"^^xsd:string ;
  mms:dataElementName "--DECOD"^^xsd:string ;
  mms:dataElementType "xsd:string"^^xsd:anySimpleType ;
  mms:ordinal "3"^^xsd:positiveInteger ;
  cdiscs:dataElementRole <http://rdf.cdisc.org/sdtm-1-2/schema#Classifier.SynonymQualifier> ;
  cdiscs:dataElementType <http://rdf.cdisc.org/schema#Classifier.Character> ;
  sdtms-1-2:qualifies <http://rdf.cdisc.org/sdtm-1-2/std#DE.Intervention.--TRT> ;
  sdtms-1-2:supportedBySDTMIG "true"^^xsd:boolean ;
  sdtms-1-2:supportedBySEND "true"^^xsd:boolean ;
.
<http://rdf.cdisc.org/sdtm-1-2/std#DE.Intervention.--DOSE>
  rdf:type mms:DataElement ;
  mms:context sdtm-1-2:InterventionVariables ;
  mms:dataElementDescription "Amount of --TRT given. Not populated when --DOSTXT is populated."^^xsd:string ;
  mms:dataElementLabel "Dose"^^xsd:string ;
  mms:dataElementName "--DOSE"^^xsd:string ;
  mms:dataElementType "xsd:decimal"^^xsd:anySimpleType ;
  mms:ordinal "13"^^xsd:positiveInteger ;
  cdiscs:dataElementRole <http://rdf.cdisc.org/sdtm-1-2/schema#Classifier.RecordQualifier> ;
  cdiscs:dataElementType <http://rdf.cdisc.org/schema#Classifier.Numeric> ;
  sdtms-1-2:supportedBySDTMIG "true"^^xsd:boolean ;
  sdtms-1-2:supportedBySEND "true"^^xsd:boolean ;
.
<http://rdf.cdisc.org/sdtm-1-2/std#DE.Intervention.--DOSFRM>
  rdf:type mms:DataElement ;
  mms:context sdtm-1-2:InterventionVariables ;
  mms:dataElementDescription "Dose form for the treatment. Examples: TABLET, CAPSULE."^^xsd:string ;
  mms:dataElementLabel "Dose Form"^^xsd:string ;
  mms:dataElementName "--DOSFRM"^^xsd:string ;
  mms:dataElementType "xsd:string"^^xsd:anySimpleType ;
  mms:ordinal "16"^^xsd:positiveInteger ;
  cdiscs:dataElementRole <http://rdf.cdisc.org/sdtm-1-2/schema#Classifier.VariableQualifier> ;
  cdiscs:dataElementType <http://rdf.cdisc.org/schema#Classifier.Character> ;
  sdtms-1-2:qualifies <http://rdf.cdisc.org/sdtm-1-2/std#DE.Intervention.--DOSE> ;
  sdtms-1-2:supportedBySDTMIG "true"^^xsd:boolean ;
  sdtms-1-2:supportedBySEND "true"^^xsd:boolean ;
.
<http://rdf.cdisc.org/sdtm-1-2/std#DE.Intervention.--DOSFRQ>
  rdf:type mms:DataElement ;
  mms:context sdtm-1-2:InterventionVariables ;
  mms:dataElementDescription "Usually expressed as the number of doses given per a specific interval. Examples: QD, BID, TID, QID."^^xsd:string ;
  mms:dataElementLabel "Dosing Frequency per Interval"^^xsd:string ;
  mms:dataElementName "--DOSFRQ"^^xsd:string ;
  mms:dataElementType "xsd:string"^^xsd:anySimpleType ;
  mms:ordinal "17"^^xsd:positiveInteger ;
  cdiscs:dataElementRole <http://rdf.cdisc.org/sdtm-1-2/schema#Classifier.VariableQualifier> ;
  cdiscs:dataElementType <http://rdf.cdisc.org/schema#Classifier.Character> ;
  sdtms-1-2:qualifies <http://rdf.cdisc.org/sdtm-1-2/std#DE.Intervention.--DOSE> ;
  sdtms-1-2:supportedBySDTMIG "true"^^xsd:boolean ;
  sdtms-1-2:supportedBySEND "true"^^xsd:boolean ;
.
<http://rdf.cdisc.org/sdtm-1-2/std#DE.Intervention.--DOSRGM>
  rdf:type mms:DataElement ;
  mms:context sdtm-1-2:InterventionVariables ;
  mms:dataElementDescription "Text description of the (intended) schedule or regimen for the Intervention. Examples: TWO WEEKS ON, TWO WEEKS OFF."^^xsd:string ;
  mms:dataElementLabel "Intended Dose Regimen"^^xsd:string ;
  mms:dataElementName "--DOSRGM"^^xsd:string ;
  mms:dataElementType "xsd:string"^^xsd:anySimpleType ;
  mms:ordinal "19"^^xsd:positiveInteger ;
  cdiscs:dataElementRole <http://rdf.cdisc.org/sdtm-1-2/schema#Classifier.VariableQualifier> ;
  cdiscs:dataElementType <http://rdf.cdisc.org/schema#Classifier.Character> ;
  sdtms-1-2:qualifies <http://rdf.cdisc.org/sdtm-1-2/std#DE.Intervention.--DOSE> ;
  sdtms-1-2:supportedBySDTMIG "true"^^xsd:boolean ;
  sdtms-1-2:supportedBySEND "true"^^xsd:boolean ;
.
<http://rdf.cdisc.org/sdtm-1-2/std#DE.Intervention.--DOSTOT>
  rdf:type mms:DataElement ;
  mms:context sdtm-1-2:InterventionVariables ;
  mms:dataElementDescription "Total daily dose of --TRT using the units in --DOSU. Used when dosing is collected as Total Daily Dose."^^xsd:string ;
  mms:dataElementLabel "Total Daily Dose"^^xsd:string ;
  mms:dataElementName "--DOSTOT"^^xsd:string ;
  mms:dataElementType "xsd:decimal"^^xsd:anySimpleType ;
  mms:ordinal "18"^^xsd:positiveInteger ;
  cdiscs:dataElementRole <http://rdf.cdisc.org/sdtm-1-2/schema#Classifier.RecordQualifier> ;
  cdiscs:dataElementType <http://rdf.cdisc.org/schema#Classifier.Numeric> ;
  sdtms-1-2:supportedBySDTMIG "true"^^xsd:boolean ;
  sdtms-1-2:supportedBySEND "true"^^xsd:boolean ;
.
<http://rdf.cdisc.org/sdtm-1-2/std#DE.Intervention.--DOSTXT>
  rdf:type mms:DataElement ;
  mms:context sdtm-1-2:InterventionVariables ;
  mms:dataElementDescription "Dosing information collected in text form. Examples: <1 per day, 200-400. Not populated when --DOSE is populated."^^xsd:string ;
  mms:dataElementLabel "Dose Description"^^xsd:string ;
  mms:dataElementName "--DOSTXT"^^xsd:string ;
  mms:dataElementType "xsd:string"^^xsd:anySimpleType ;
  mms:ordinal "14"^^xsd:positiveInteger ;
  cdiscs:dataElementRole <http://rdf.cdisc.org/sdtm-1-2/schema#Classifier.RecordQualifier> ;
  cdiscs:dataElementType <http://rdf.cdisc.org/schema#Classifier.Character> ;
  sdtms-1-2:supportedBySDTMIG "true"^^xsd:boolean ;
  sdtms-1-2:supportedBySEND "true"^^xsd:boolean ;
.
<http://rdf.cdisc.org/sdtm-1-2/std#DE.Intervention.--DOSU>
  rdf:type mms:DataElement ;
  mms:context sdtm-1-2:InterventionVariables ;
  mms:dataElementDescription "Units for --DOSE, --DOSTOT, or --DOSTXT (Examples: ng, mg, mg/kg)."^^xsd:string ;
  mms:dataElementLabel "Dose Units"^^xsd:string ;
  mms:dataElementName "--DOSU"^^xsd:string ;
  mms:dataElementType "xsd:string"^^xsd:anySimpleType ;
  mms:ordinal "15"^^xsd:positiveInteger ;
  cdiscs:dataElementRole <http://rdf.cdisc.org/sdtm-1-2/schema#Classifier.VariableQualifier> ;
  cdiscs:dataElementType <http://rdf.cdisc.org/schema#Classifier.Character> ;
  sdtms-1-2:qualifies <http://rdf.cdisc.org/sdtm-1-2/std#DE.Intervention.--DOSE> ;
  sdtms-1-2:supportedBySDTMIG "true"^^xsd:boolean ;
  sdtms-1-2:supportedBySEND "true"^^xsd:boolean ;
.
<http://rdf.cdisc.org/sdtm-1-2/std#DE.Intervention.--INDC>
  rdf:type mms:DataElement ;
  mms:context sdtm-1-2:InterventionVariables ;
  mms:dataElementDescription "Denotes the indication for the intervention (e.g., why the therapy was taken or administered)."^^xsd:string ;
  mms:dataElementLabel "Indication"^^xsd:string ;
  mms:dataElementName "--INDC"^^xsd:string ;
  mms:dataElementType "xsd:string"^^xsd:anySimpleType ;
  mms:ordinal "10"^^xsd:positiveInteger ;
  cdiscs:dataElementRole <http://rdf.cdisc.org/sdtm-1-2/schema#Classifier.RecordQualifier> ;
  cdiscs:dataElementType <http://rdf.cdisc.org/schema#Classifier.Character> ;
  sdtms-1-2:supportedBySDTMIG "true"^^xsd:boolean ;
  sdtms-1-2:supportedBySEND "true"^^xsd:boolean ;
.
<http://rdf.cdisc.org/sdtm-1-2/std#DE.Intervention.--LOC>
  rdf:type mms:DataElement ;
  mms:context sdtm-1-2:InterventionVariables ;
  mms:dataElementDescription "Anatomical location of an intervention, such as an injection site. Example: RIGHT ARM for an injection."^^xsd:string ;
  mms:dataElementLabel "Location of Dose Administration"^^xsd:string ;
  mms:dataElementName "--LOC"^^xsd:string ;
  mms:dataElementType "xsd:string"^^xsd:anySimpleType ;
  mms:ordinal "22"^^xsd:positiveInteger ;
  cdiscs:dataElementRole <http://rdf.cdisc.org/sdtm-1-2/schema#Classifier.RecordQualifier> ;
  cdiscs:dataElementType <http://rdf.cdisc.org/schema#Classifier.Character> ;
  sdtms-1-2:supportedBySDTMIG "true"^^xsd:boolean ;
  sdtms-1-2:supportedBySEND "true"^^xsd:boolean ;
.
<http://rdf.cdisc.org/sdtm-1-2/std#DE.Intervention.--LOT>
  rdf:type mms:DataElement ;
  mms:context sdtm-1-2:InterventionVariables ;
  mms:dataElementDescription "Lot number for the intervention described in --TRT."^^xsd:string ;
  mms:dataElementLabel "Lot Number"^^xsd:string ;
  mms:dataElementName "--LOT"^^xsd:string ;
  mms:dataElementType "xsd:string"^^xsd:anySimpleType ;
  mms:ordinal "21"^^xsd:positiveInteger ;
  cdiscs:dataElementRole <http://rdf.cdisc.org/sdtm-1-2/schema#Classifier.RecordQualifier> ;
  cdiscs:dataElementType <http://rdf.cdisc.org/schema#Classifier.Character> ;
  sdtms-1-2:supportedBySDTMIG "true"^^xsd:boolean ;
  sdtms-1-2:supportedBySEND "true"^^xsd:boolean ;
.
<http://rdf.cdisc.org/sdtm-1-2/std#DE.Intervention.--MODIFY>
  rdf:type mms:DataElement ;
  mms:context sdtm-1-2:InterventionVariables ;
  mms:dataElementDescription "If the value for --TRT is modified for coding purposes, then the modified text is placed here."^^xsd:string ;
  mms:dataElementLabel "Modified Treatment Name"^^xsd:string ;
  mms:dataElementName "--MODIFY"^^xsd:string ;
  mms:dataElementType "xsd:string"^^xsd:anySimpleType ;
  mms:ordinal "2"^^xsd:positiveInteger ;
  cdiscs:dataElementRole <http://rdf.cdisc.org/sdtm-1-2/schema#Classifier.SynonymQualifier> ;
  cdiscs:dataElementType <http://rdf.cdisc.org/schema#Classifier.Character> ;
  sdtms-1-2:qualifies <http://rdf.cdisc.org/sdtm-1-2/std#DE.Intervention.--TRT> ;
  sdtms-1-2:supportedBySDTMIG "true"^^xsd:boolean ;
  sdtms-1-2:supportedBySEND "true"^^xsd:boolean ;
.
<http://rdf.cdisc.org/sdtm-1-2/std#DE.Intervention.--OCCUR>
  rdf:type mms:DataElement ;
  mms:context sdtm-1-2:InterventionVariables ;
  mms:dataElementDescription "Used to record whether a pre-specified intervention occurred when information about the occurrence of a specific intervention is solicited."^^xsd:string ;
  mms:dataElementLabel "Occurrence"^^xsd:string ;
  mms:dataElementName "--OCCUR"^^xsd:string ;
  mms:dataElementType "xsd:string"^^xsd:anySimpleType ;
  mms:ordinal "7"^^xsd:positiveInteger ;
  cdiscs:dataElementRole <http://rdf.cdisc.org/sdtm-1-2/schema#Classifier.RecordQualifier> ;
  cdiscs:dataElementType <http://rdf.cdisc.org/schema#Classifier.Character> ;
  sdtms-1-2:supportedBySDTMIG "true"^^xsd:boolean ;
  sdtms-1-2:supportedBySEND "true"^^xsd:boolean ;
.
<http://rdf.cdisc.org/sdtm-1-2/std#DE.Intervention.--PRESP>
  rdf:type mms:DataElement ;
  mms:context sdtm-1-2:InterventionVariables ;
  mms:dataElementDescription "Used when a specific intervention is pre-specified on a CRF. Values should be \"Y\" or null."^^xsd:string ;
  mms:dataElementLabel "Pre-specified"^^xsd:string ;
  mms:dataElementName "--PRESP"^^xsd:string ;
  mms:dataElementType "xsd:string"^^xsd:anySimpleType ;
  mms:ordinal "6"^^xsd:positiveInteger ;
  cdiscs:dataElementRole <http://rdf.cdisc.org/sdtm-1-2/schema#Classifier.RecordQualifier> ;
  cdiscs:dataElementType <http://rdf.cdisc.org/schema#Classifier.Character> ;
  sdtms-1-2:supportedBySDTMIG "true"^^xsd:boolean ;
  sdtms-1-2:supportedBySEND "true"^^xsd:boolean ;
.
<http://rdf.cdisc.org/sdtm-1-2/std#DE.Intervention.--REASND>
  rdf:type mms:DataElement ;
  mms:context sdtm-1-2:InterventionVariables ;
  mms:dataElementDescription "Reason not done. Used in conjunction with --STAT when value is NOT DONE."^^xsd:string ;
  mms:dataElementLabel "Reason Not Done"^^xsd:string ;
  mms:dataElementName "--REASND"^^xsd:string ;
  mms:dataElementType "xsd:string"^^xsd:anySimpleType ;
  mms:ordinal "9"^^xsd:positiveInteger ;
  cdiscs:dataElementRole <http://rdf.cdisc.org/sdtm-1-2/schema#Classifier.RecordQualifier> ;
  cdiscs:dataElementType <http://rdf.cdisc.org/schema#Classifier.Character> ;
  sdtms-1-2:supportedBySDTMIG "true"^^xsd:boolean ;
  sdtms-1-2:supportedBySEND "true"^^xsd:boolean ;
.
<http://rdf.cdisc.org/sdtm-1-2/std#DE.Intervention.--ROUTE>
  rdf:type mms:DataElement ;
  mms:context sdtm-1-2:InterventionVariables ;
  mms:dataElementDescription "Route of administration for the intervention. Examples: ORAL, INTRAVENOUS."^^xsd:string ;
  mms:dataElementLabel "Route of Administration"^^xsd:string ;
  mms:dataElementName "--ROUTE"^^xsd:string ;
  mms:dataElementType "xsd:string"^^xsd:anySimpleType ;
  mms:ordinal "20"^^xsd:positiveInteger ;
  cdiscs:dataElementRole <http://rdf.cdisc.org/sdtm-1-2/schema#Classifier.VariableQualifier> ;
  cdiscs:dataElementType <http://rdf.cdisc.org/schema#Classifier.Character> ;
  sdtms-1-2:qualifies <http://rdf.cdisc.org/sdtm-1-2/std#DE.Intervention.--TRT> ;
  sdtms-1-2:supportedBySDTMIG "true"^^xsd:boolean ;
  sdtms-1-2:supportedBySEND "true"^^xsd:boolean ;
.
<http://rdf.cdisc.org/sdtm-1-2/std#DE.Intervention.--SCAT>
  rdf:type mms:DataElement ;
  mms:context sdtm-1-2:InterventionVariables ;
  mms:dataElementDescription "Used to define a further categorization of --CAT values."^^xsd:string ;
  mms:dataElementLabel "Subcategory"^^xsd:string ;
  mms:dataElementName "--SCAT"^^xsd:string ;
  mms:dataElementType "xsd:string"^^xsd:anySimpleType ;
  mms:ordinal "5"^^xsd:positiveInteger ;
  cdiscs:dataElementRole <http://rdf.cdisc.org/sdtm-1-2/schema#Classifier.GroupingQualifier> ;
  cdiscs:dataElementType <http://rdf.cdisc.org/schema#Classifier.Character> ;
  sdtms-1-2:supportedBySDTMIG "true"^^xsd:boolean ;
  sdtms-1-2:supportedBySEND "true"^^xsd:boolean ;
.
<http://rdf.cdisc.org/sdtm-1-2/std#DE.Intervention.--STAT>
  rdf:type mms:DataElement ;
  mms:context sdtm-1-2:InterventionVariables ;
  mms:dataElementDescription "Used to indicate when a question about the occurrence of a pre-specified intervention was not answered. Should be null or have a value of NOT DONE."^^xsd:string ;
  mms:dataElementLabel "Completion Status"^^xsd:string ;
  mms:dataElementName "--STAT"^^xsd:string ;
  mms:dataElementType "xsd:string"^^xsd:anySimpleType ;
  mms:ordinal "8"^^xsd:positiveInteger ;
  cdiscs:dataElementRole <http://rdf.cdisc.org/sdtm-1-2/schema#Classifier.RecordQualifier> ;
  cdiscs:dataElementType <http://rdf.cdisc.org/schema#Classifier.Character> ;
  sdtms-1-2:supportedBySDTMIG "true"^^xsd:boolean ;
  sdtms-1-2:supportedBySEND "true"^^xsd:boolean ;
.
<http://rdf.cdisc.org/sdtm-1-2/std#DE.Intervention.--TRT>
  rdf:type mms:DataElement ;
  mms:context sdtm-1-2:InterventionVariables ;
  mms:dataElementDescription "The topic for the intervention observation, usually the verbatim name of the treatment, drug, medicine, or therapy given during the dosing interval for the observation."^^xsd:string ;
  mms:dataElementLabel "Name of Treatment"^^xsd:string ;
  mms:dataElementName "--TRT"^^xsd:string ;
  mms:dataElementType "xsd:string"^^xsd:anySimpleType ;
  mms:ordinal "1"^^xsd:positiveInteger ;
  cdiscs:dataElementRole <http://rdf.cdisc.org/sdtm-1-2/schema#Classifier.TopicVariable> ;
  cdiscs:dataElementType <http://rdf.cdisc.org/schema#Classifier.Character> ;
  sdtms-1-2:supportedBySDTMIG "true"^^xsd:boolean ;
  sdtms-1-2:supportedBySEND "true"^^xsd:boolean ;
.
<http://rdf.cdisc.org/sdtm-1-2/std#DE.Intervention.--TRTV>
  rdf:type mms:DataElement ;
  mms:context sdtm-1-2:InterventionVariables ;
  mms:dataElementDescription "Vehicle for administration of treatment, such as a liquid in which the treatment drug is dissolved. Example: SALINE."^^xsd:string ;
  mms:dataElementLabel "Treatment Vehicle"^^xsd:string ;
  mms:dataElementName "--TRTV"^^xsd:string ;
  mms:dataElementType "xsd:string"^^xsd:anySimpleType ;
  mms:ordinal "23"^^xsd:positiveInteger ;
  cdiscs:dataElementRole <http://rdf.cdisc.org/sdtm-1-2/schema#Classifier.RecordQualifier> ;
  cdiscs:dataElementType <http://rdf.cdisc.org/schema#Classifier.Character> ;
  sdtms-1-2:supportedBySDTMIG "true"^^xsd:boolean ;
  sdtms-1-2:supportedBySEND "true"^^xsd:boolean ;
.
<http://rdf.cdisc.org/sdtm-1-2/std#DE.Intervention.--VAMT>
  rdf:type mms:DataElement ;
  mms:context sdtm-1-2:InterventionVariables ;
  mms:dataElementDescription "Amount of the treatment vehicle administered or given."^^xsd:string ;
  mms:dataElementLabel "Treatment Vehicle Amount"^^xsd:string ;
  mms:dataElementName "--VAMT"^^xsd:string ;
  mms:dataElementType "xsd:decimal"^^xsd:anySimpleType ;
  mms:ordinal "24"^^xsd:positiveInteger ;
  cdiscs:dataElementRole <http://rdf.cdisc.org/sdtm-1-2/schema#Classifier.RecordQualifier> ;
  cdiscs:dataElementType <http://rdf.cdisc.org/schema#Classifier.Numeric> ;
  sdtms-1-2:supportedBySDTMIG "true"^^xsd:boolean ;
  sdtms-1-2:supportedBySEND "true"^^xsd:boolean ;
.
<http://rdf.cdisc.org/sdtm-1-2/std#DE.Intervention.--VAMTU>
  rdf:type mms:DataElement ;
  mms:context sdtm-1-2:InterventionVariables ;
  mms:dataElementDescription "Units for the treatment vehicle. Examples: mL, mg."^^xsd:string ;
  mms:dataElementLabel "Treatment Vehicle Amount Units"^^xsd:string ;
  mms:dataElementName "--VAMTU"^^xsd:string ;
  mms:dataElementType "xsd:string"^^xsd:anySimpleType ;
  mms:ordinal "25"^^xsd:positiveInteger ;
  cdiscs:dataElementRole <http://rdf.cdisc.org/sdtm-1-2/schema#Classifier.VariableQualifier> ;
  cdiscs:dataElementType <http://rdf.cdisc.org/schema#Classifier.Character> ;
  sdtms-1-2:qualifies <http://rdf.cdisc.org/sdtm-1-2/std#DE.Intervention.--VAMT> ;
  sdtms-1-2:supportedBySDTMIG "true"^^xsd:boolean ;
  sdtms-1-2:supportedBySEND "true"^^xsd:boolean ;
.
<http://rdf.cdisc.org/sdtm-1-2/std#DE.Timing.--DTC>
  rdf:type mms:DataElement ;
  mms:context sdtm-1-2:TimingVariables ;
  mms:dataElementDescription "Collection date and time of an observation represented in IS0 8601 character format."^^xsd:string ;
  mms:dataElementLabel "Date/Time of Collection"^^xsd:string ;
  mms:dataElementName "--DTC"^^xsd:string ;
  mms:dataElementType "xsd:dateTime"^^xsd:anySimpleType ;
  mms:ordinal "6"^^xsd:positiveInteger ;
  cdiscs:dataElementRole <http://rdf.cdisc.org/sdtm-1-2/schema#Classifier.TimingVariable> ;
  cdiscs:dataElementType <http://rdf.cdisc.org/schema#Classifier.Character> ;
  sdtms-1-2:supportedBySDTMIG "true"^^xsd:boolean ;
  sdtms-1-2:supportedBySEND "true"^^xsd:boolean ;
.
<http://rdf.cdisc.org/sdtm-1-2/std#DE.Timing.--DUR>
  rdf:type mms:DataElement ;
  mms:context sdtm-1-2:TimingVariables ;
  mms:dataElementDescription "Collected duration of an event, intervention, or finding represented in ISO 8601 character format. Used only if collected on the CRF and not derived."^^xsd:string ;
  mms:dataElementLabel "Duration"^^xsd:string ;
  mms:dataElementName "--DUR"^^xsd:string ;
  mms:dataElementType "xsd:duration"^^xsd:anySimpleType ;
  mms:ordinal "12"^^xsd:positiveInteger ;
  cdiscs:dataElementRole <http://rdf.cdisc.org/sdtm-1-2/schema#Classifier.TimingVariable> ;
  cdiscs:dataElementType <http://rdf.cdisc.org/schema#Classifier.Character> ;
  sdtms-1-2:supportedBySDTMIG "true"^^xsd:boolean ;
  sdtms-1-2:supportedBySEND "true"^^xsd:boolean ;
.
<http://rdf.cdisc.org/sdtm-1-2/std#DE.Timing.--DY>
  rdf:type mms:DataElement ;
  mms:context sdtm-1-2:TimingVariables ;
  mms:dataElementDescription "Actual study day of visit/collection/exam expressed in integer days relative to the sponsor-defined RFSTDTC in Demographics."^^xsd:string ;
  mms:dataElementLabel "Study Day of Visit/Collection/Exam"^^xsd:string ;
  mms:dataElementName "--DY"^^xsd:string ;
  mms:dataElementType "xsd:integer"^^xsd:anySimpleType ;
  mms:ordinal "9"^^xsd:positiveInteger ;
  cdiscs:dataElementRole <http://rdf.cdisc.org/sdtm-1-2/schema#Classifier.TimingVariable> ;
  cdiscs:dataElementType <http://rdf.cdisc.org/schema#Classifier.Numeric> ;
  sdtms-1-2:supportedBySDTMIG "true"^^xsd:boolean ;
  sdtms-1-2:supportedBySEND "true"^^xsd:boolean ;
.
<http://rdf.cdisc.org/sdtm-1-2/std#DE.Timing.--ELTM>
  rdf:type mms:DataElement ;
  mms:context sdtm-1-2:TimingVariables ;
  mms:dataElementDescription "Planned Elapsed time in ISO 8601 character format relative to a planned fixed reference (--TPTREF) such as \"Previous Dose\" or \"Previous Meal\". This variable is useful where there are repetitive measures. Not a clock time or a date/time variable, but an interval, represented as ISO duration."^^xsd:string ;
  mms:dataElementLabel "Planned Elapsed Time from Time Point Ref"^^xsd:string ;
  mms:dataElementName "--ELTM"^^xsd:string ;
  mms:dataElementType "xsd:duration"^^xsd:anySimpleType ;
  mms:ordinal "15"^^xsd:positiveInteger ;
  cdiscs:dataElementRole <http://rdf.cdisc.org/sdtm-1-2/schema#Classifier.TimingVariable> ;
  cdiscs:dataElementType <http://rdf.cdisc.org/schema#Classifier.Character> ;
  sdtms-1-2:supportedBySDTMIG "true"^^xsd:boolean ;
  sdtms-1-2:supportedBySEND "true"^^xsd:boolean ;
.
<http://rdf.cdisc.org/sdtm-1-2/std#DE.Timing.--ENDTC>
  rdf:type mms:DataElement ;
  mms:context sdtm-1-2:TimingVariables ;
  mms:dataElementDescription "End date/time of the observation represented in IS0 8601 character format."^^xsd:string ;
  mms:dataElementLabel "End Date/Time of Observation"^^xsd:string ;
  mms:dataElementName "--ENDTC"^^xsd:string ;
  mms:dataElementType "xsd:dateTime"^^xsd:anySimpleType ;
  mms:ordinal "8"^^xsd:positiveInteger ;
  cdiscs:dataElementRole <http://rdf.cdisc.org/sdtm-1-2/schema#Classifier.TimingVariable> ;
  cdiscs:dataElementType <http://rdf.cdisc.org/schema#Classifier.Character> ;
  sdtms-1-2:supportedBySDTMIG "true"^^xsd:boolean ;
  sdtms-1-2:supportedBySEND "true"^^xsd:boolean ;
.
<http://rdf.cdisc.org/sdtm-1-2/std#DE.Timing.--ENDY>
  rdf:type mms:DataElement ;
  mms:context sdtm-1-2:TimingVariables ;
  mms:dataElementDescription "Actual study day of end of observation expressed in integer days relative to the sponsor-defined RFSTDTC in Demographics."^^xsd:string ;
  mms:dataElementLabel "Study Day of End of Observation"^^xsd:string ;
  mms:dataElementName "--ENDY"^^xsd:string ;
  mms:dataElementType "xsd:integer"^^xsd:anySimpleType ;
  mms:ordinal "11"^^xsd:positiveInteger ;
  cdiscs:dataElementRole <http://rdf.cdisc.org/sdtm-1-2/schema#Classifier.TimingVariable> ;
  cdiscs:dataElementType <http://rdf.cdisc.org/schema#Classifier.Numeric> ;
  sdtms-1-2:supportedBySDTMIG "true"^^xsd:boolean ;
  sdtms-1-2:supportedBySEND "true"^^xsd:boolean ;
.
<http://rdf.cdisc.org/sdtm-1-2/std#DE.Timing.--ENRF>
  rdf:type mms:DataElement ;
  mms:context sdtm-1-2:TimingVariables ;
  mms:dataElementDescription "Identifies the end of the observation as being before, during or after the sponsor-defined reference period. The sponsor-defined reference period is a continuous period of time defined by a discrete starting point and a discrete ending point represented by RFSTDTC and RFENDTC in Demographics."^^xsd:string ;
  mms:dataElementLabel "End Relative to Reference Period"^^xsd:string ;
  mms:dataElementName "--ENRF"^^xsd:string ;
  mms:dataElementType "xsd:string"^^xsd:anySimpleType ;
  mms:ordinal "19"^^xsd:positiveInteger ;
  cdiscs:dataElementRole <http://rdf.cdisc.org/sdtm-1-2/schema#Classifier.TimingVariable> ;
  cdiscs:dataElementType <http://rdf.cdisc.org/schema#Classifier.Character> ;
  sdtms-1-2:supportedBySDTMIG "true"^^xsd:boolean ;
  sdtms-1-2:supportedBySEND "true"^^xsd:boolean ;
.
<http://rdf.cdisc.org/sdtm-1-2/std#DE.Timing.--ENRTPT>
  rdf:type mms:DataElement ;
  mms:context sdtm-1-2:TimingVariables ;
  mms:dataElementDescription "Identifies the end of the observation as being before or after the sponsor-defined reference time point defined by variable --ENTPT."^^xsd:string ;
  mms:dataElementLabel "End Relative to Reference Time Point"^^xsd:string ;
  mms:dataElementName "--ENRTPT"^^xsd:string ;
  mms:dataElementType "xsd:string"^^xsd:anySimpleType ;
  mms:ordinal "23"^^xsd:positiveInteger ;
  cdiscs:dataElementRole <http://rdf.cdisc.org/sdtm-1-2/schema#Classifier.TimingVariable> ;
  cdiscs:dataElementType <http://rdf.cdisc.org/schema#Classifier.Character> ;
  sdtms-1-2:supportedBySDTMIG "true"^^xsd:boolean ;
  sdtms-1-2:supportedBySEND "true"^^xsd:boolean ;
.
<http://rdf.cdisc.org/sdtm-1-2/std#DE.Timing.--ENTPT>
  rdf:type mms:DataElement ;
  mms:context sdtm-1-2:TimingVariables ;
  mms:dataElementDescription "Description or date/time in ISO 8601 character format of the sponsor-defined reference point referred to by --ENRTPT. Examples: \"2003-12-25\" or \"VISIT 2\"."^^xsd:string ;
  mms:dataElementLabel "End Reference Time Point"^^xsd:string ;
  mms:dataElementName "--ENTPT"^^xsd:string ;
  mms:dataElementType "xsd:string"^^xsd:anySimpleType ;
  mms:ordinal "24"^^xsd:positiveInteger ;
  cdiscs:dataElementRole <http://rdf.cdisc.org/sdtm-1-2/schema#Classifier.TimingVariable> ;
  cdiscs:dataElementType <http://rdf.cdisc.org/schema#Classifier.Character> ;
  sdtms-1-2:supportedBySDTMIG "true"^^xsd:boolean ;
  sdtms-1-2:supportedBySEND "true"^^xsd:boolean ;
.
<http://rdf.cdisc.org/sdtm-1-2/std#DE.Timing.--EVLINT>
  rdf:type mms:DataElement ;
  mms:context sdtm-1-2:TimingVariables ;
  mms:dataElementDescription "Evaluation interval associated with an observation such as a finding --TESTCD, represented in ISO 8601 character format. Example: -P2M to represent a period of the past 2 months as the evaluation interval for a question from a questionnaire such as SF-36."^^xsd:string ;
  mms:dataElementLabel "Evaluation Interval"^^xsd:string ;
  mms:dataElementName "--EVLINT"^^xsd:string ;
  mms:dataElementType "xsd:duration"^^xsd:anySimpleType ;
  mms:ordinal "20"^^xsd:positiveInteger ;
  cdiscs:dataElementRole <http://rdf.cdisc.org/sdtm-1-2/schema#Classifier.TimingVariable> ;
  cdiscs:dataElementType <http://rdf.cdisc.org/schema#Classifier.Character> ;
  sdtms-1-2:supportedBySDTMIG "true"^^xsd:boolean ;
  sdtms-1-2:supportedBySEND "true"^^xsd:boolean ;
.
<http://rdf.cdisc.org/sdtm-1-2/std#DE.Timing.--RFTDTC>
  rdf:type mms:DataElement ;
  mms:context sdtm-1-2:TimingVariables ;
  mms:dataElementDescription "Date/time for a fixed reference time point defined by --TPTREF in ISO 8601 character format."^^xsd:string ;
  mms:dataElementLabel "Date/Time of Reference Time Point"^^xsd:string ;
  mms:dataElementName "--RFTDTC"^^xsd:string ;
  mms:dataElementType "xsd:dateTime"^^xsd:anySimpleType ;
  mms:ordinal "17"^^xsd:positiveInteger ;
  cdiscs:dataElementRole <http://rdf.cdisc.org/sdtm-1-2/schema#Classifier.TimingVariable> ;
  cdiscs:dataElementType <http://rdf.cdisc.org/schema#Classifier.Character> ;
  sdtms-1-2:supportedBySDTMIG "true"^^xsd:boolean ;
  sdtms-1-2:supportedBySEND "true"^^xsd:boolean ;
.
<http://rdf.cdisc.org/sdtm-1-2/std#DE.Timing.--STDTC>
  rdf:type mms:DataElement ;
  mms:context sdtm-1-2:TimingVariables ;
  mms:dataElementDescription "Start date/time of an observation represented in IS0 8601 character format."^^xsd:string ;
  mms:dataElementLabel "Start Date/Time of Observation"^^xsd:string ;
  mms:dataElementName "--STDTC"^^xsd:string ;
  mms:dataElementType "xsd:dateTime"^^xsd:anySimpleType ;
  mms:ordinal "7"^^xsd:positiveInteger ;
  cdiscs:dataElementRole <http://rdf.cdisc.org/sdtm-1-2/schema#Classifier.TimingVariable> ;
  cdiscs:dataElementType <http://rdf.cdisc.org/schema#Classifier.Character> ;
  sdtms-1-2:supportedBySDTMIG "true"^^xsd:boolean ;
  sdtms-1-2:supportedBySEND "true"^^xsd:boolean ;
.
<http://rdf.cdisc.org/sdtm-1-2/std#DE.Timing.--STDY>
  rdf:type mms:DataElement ;
  mms:context sdtm-1-2:TimingVariables ;
  mms:dataElementDescription "Actual study day of start of observation expressed in integer days relative to the sponsor-defined RFSTDTC in Demographics."^^xsd:string ;
  mms:dataElementLabel "Study Day of Start of Observation"^^xsd:string ;
  mms:dataElementName "--STDY"^^xsd:string ;
  mms:dataElementType "xsd:integer"^^xsd:anySimpleType ;
  mms:ordinal "10"^^xsd:positiveInteger ;
  cdiscs:dataElementRole <http://rdf.cdisc.org/sdtm-1-2/schema#Classifier.TimingVariable> ;
  cdiscs:dataElementType <http://rdf.cdisc.org/schema#Classifier.Numeric> ;
  sdtms-1-2:supportedBySDTMIG "true"^^xsd:boolean ;
  sdtms-1-2:supportedBySEND "true"^^xsd:boolean ;
.
<http://rdf.cdisc.org/sdtm-1-2/std#DE.Timing.--STRF>
  rdf:type mms:DataElement ;
  mms:context sdtm-1-2:TimingVariables ;
  mms:dataElementDescription "Identifies the start of the observation as being before, during, or after the sponsor-defined reference period. The sponsor-defined reference period is a continuous period of time defined by a discrete starting point and a discrete ending point represented by RFSTDTC and RFENDTC in Demographics."^^xsd:string ;
  mms:dataElementLabel "Start Relative to Reference Period"^^xsd:string ;
  mms:dataElementName "--STRF"^^xsd:string ;
  mms:dataElementType "xsd:string"^^xsd:anySimpleType ;
  mms:ordinal "18"^^xsd:positiveInteger ;
  cdiscs:dataElementRole <http://rdf.cdisc.org/sdtm-1-2/schema#Classifier.TimingVariable> ;
  cdiscs:dataElementType <http://rdf.cdisc.org/schema#Classifier.Character> ;
  sdtms-1-2:supportedBySDTMIG "true"^^xsd:boolean ;
  sdtms-1-2:supportedBySEND "true"^^xsd:boolean ;
.
<http://rdf.cdisc.org/sdtm-1-2/std#DE.Timing.--STRTPT>
  rdf:type mms:DataElement ;
  mms:context sdtm-1-2:TimingVariables ;
  mms:dataElementDescription "Identifies the start of the observation as being before or after the sponsor-defined reference time point defined by variable --STTPT."^^xsd:string ;
  mms:dataElementLabel "Start Relative to Reference Time Point"^^xsd:string ;
  mms:dataElementName "--STRTPT"^^xsd:string ;
  mms:dataElementType "xsd:string"^^xsd:anySimpleType ;
  mms:ordinal "21"^^xsd:positiveInteger ;
  cdiscs:dataElementRole <http://rdf.cdisc.org/sdtm-1-2/schema#Classifier.TimingVariable> ;
  cdiscs:dataElementType <http://rdf.cdisc.org/schema#Classifier.Character> ;
  sdtms-1-2:supportedBySDTMIG "true"^^xsd:boolean ;
  sdtms-1-2:supportedBySEND "true"^^xsd:boolean ;
.
<http://rdf.cdisc.org/sdtm-1-2/std#DE.Timing.--STTPT>
  rdf:type mms:DataElement ;
  mms:context sdtm-1-2:TimingVariables ;
  mms:dataElementDescription "Description or date/time in ISO 8601 character format of the sponsor-defined reference point referred to by --STRTPT. Examples: \"2003-12-15\" or \"VISIT 1\"."^^xsd:string ;
  mms:dataElementLabel "Start Reference Time Point"^^xsd:string ;
  mms:dataElementName "--STTPT"^^xsd:string ;
  mms:dataElementType "xsd:string"^^xsd:anySimpleType ;
  mms:ordinal "22"^^xsd:positiveInteger ;
  cdiscs:dataElementRole <http://rdf.cdisc.org/sdtm-1-2/schema#Classifier.TimingVariable> ;
  cdiscs:dataElementType <http://rdf.cdisc.org/schema#Classifier.Character> ;
  sdtms-1-2:supportedBySDTMIG "true"^^xsd:boolean ;
  sdtms-1-2:supportedBySEND "true"^^xsd:boolean ;
.
<http://rdf.cdisc.org/sdtm-1-2/std#DE.Timing.--TPT>
  rdf:type mms:DataElement ;
  mms:context sdtm-1-2:TimingVariables ;
  mms:dataElementDescription "Text description of time when a measurement or observation should be taken as defined in the protocol. This may be represented as an elapsed time relative to a fixed reference point, such as time of last dose. See --TPTNUM and --TPTREF."^^xsd:string ;
  mms:dataElementLabel "Planned Time Point Name"^^xsd:string ;
  mms:dataElementName "--TPT"^^xsd:string ;
  mms:dataElementType "xsd:string"^^xsd:anySimpleType ;
  mms:ordinal "13"^^xsd:positiveInteger ;
  cdiscs:dataElementRole <http://rdf.cdisc.org/sdtm-1-2/schema#Classifier.TimingVariable> ;
  cdiscs:dataElementType <http://rdf.cdisc.org/schema#Classifier.Character> ;
  sdtms-1-2:supportedBySDTMIG "true"^^xsd:boolean ;
  sdtms-1-2:supportedBySEND "true"^^xsd:boolean ;
.
<http://rdf.cdisc.org/sdtm-1-2/std#DE.Timing.--TPTNUM>
  rdf:type mms:DataElement ;
  mms:context sdtm-1-2:TimingVariables ;
  mms:dataElementDescription "Numeric version of planned time point used in sorting."^^xsd:string ;
  mms:dataElementLabel "Planned Time Point Number"^^xsd:string ;
  mms:dataElementName "--TPTNUM"^^xsd:string ;
  mms:dataElementType "xsd:decimal"^^xsd:anySimpleType ;
  mms:ordinal "14"^^xsd:positiveInteger ;
  cdiscs:dataElementRole <http://rdf.cdisc.org/sdtm-1-2/schema#Classifier.TimingVariable> ;
  cdiscs:dataElementType <http://rdf.cdisc.org/schema#Classifier.Numeric> ;
  sdtms-1-2:supportedBySDTMIG "true"^^xsd:boolean ;
  sdtms-1-2:supportedBySEND "true"^^xsd:boolean ;
.
<http://rdf.cdisc.org/sdtm-1-2/std#DE.Timing.--TPTREF>
  rdf:type mms:DataElement ;
  mms:context sdtm-1-2:TimingVariables ;
  mms:dataElementDescription "Description of the fixed reference point referred to by --ELTM, --TPTNUM, and --TPT. Examples: PREVIOUS DOSE, PREVIOUS MEAL."^^xsd:string ;
  mms:dataElementLabel "Time Point Reference"^^xsd:string ;
  mms:dataElementName "--TPTREF"^^xsd:string ;
  mms:dataElementType "xsd:string"^^xsd:anySimpleType ;
  mms:ordinal "16"^^xsd:positiveInteger ;
  cdiscs:dataElementRole <http://rdf.cdisc.org/sdtm-1-2/schema#Classifier.TimingVariable> ;
  cdiscs:dataElementType <http://rdf.cdisc.org/schema#Classifier.Character> ;
  sdtms-1-2:supportedBySDTMIG "true"^^xsd:boolean ;
  sdtms-1-2:supportedBySEND "true"^^xsd:boolean ;
.
<http://rdf.cdisc.org/sdtm-1-2/std#DE.Timing.EPOCH>
  rdf:type mms:DataElement ;
  mms:context sdtm-1-2:TimingVariables ;
  mms:dataElementDescription "Epoch associated with the start date/time of the observation, or the date/time of collection if start date/time is not collected."^^xsd:string ;
  mms:dataElementLabel "Epoch"^^xsd:string ;
  mms:dataElementName "EPOCH"^^xsd:string ;
  mms:dataElementType "xsd:string"^^xsd:anySimpleType ;
  mms:ordinal "5"^^xsd:positiveInteger ;
  cdiscs:dataElementRole <http://rdf.cdisc.org/sdtm-1-2/schema#Classifier.TimingVariable> ;
  cdiscs:dataElementType <http://rdf.cdisc.org/schema#Classifier.Character> ;
  sdtms-1-2:supportedBySDTMIG "true"^^xsd:boolean ;
  sdtms-1-2:supportedBySEND "true"^^xsd:boolean ;
.
<http://rdf.cdisc.org/sdtm-1-2/std#DE.Timing.TAETORD>
  rdf:type mms:DataElement ;
  mms:context sdtm-1-2:TimingVariables ;
  mms:dataElementDescription "Number that gives the planned order of the Element within the Arm."^^xsd:string ;
  mms:dataElementLabel "Planned Order of Elements within Arm"^^xsd:string ;
  mms:dataElementName "TAETORD"^^xsd:string ;
  mms:dataElementType "xsd:decimal"^^xsd:anySimpleType ;
  mms:ordinal "4"^^xsd:positiveInteger ;
  cdiscs:dataElementRole <http://rdf.cdisc.org/sdtm-1-2/schema#Classifier.TimingVariable> ;
  cdiscs:dataElementType <http://rdf.cdisc.org/schema#Classifier.Numeric> ;
  sdtms-1-2:supportedBySDTMIG "true"^^xsd:boolean ;
  sdtms-1-2:supportedBySEND "true"^^xsd:boolean ;
.
<http://rdf.cdisc.org/sdtm-1-2/std#DE.Timing.VISIT>
  rdf:type mms:DataElement ;
  mms:context sdtm-1-2:TimingVariables ;
  mms:dataElementDescription "Protocol-defined description of a clinical encounter."^^xsd:string ;
  mms:dataElementLabel "Visit Name"^^xsd:string ;
  mms:dataElementName "VISIT"^^xsd:string ;
  mms:dataElementType "xsd:string"^^xsd:anySimpleType ;
  mms:ordinal "2"^^xsd:positiveInteger ;
  cdiscs:dataElementRole <http://rdf.cdisc.org/sdtm-1-2/schema#Classifier.TimingVariable> ;
  cdiscs:dataElementType <http://rdf.cdisc.org/schema#Classifier.Character> ;
  sdtms-1-2:supportedBySDTMIG "true"^^xsd:boolean ;
  sdtms-1-2:supportedBySEND "true"^^xsd:boolean ;
.
<http://rdf.cdisc.org/sdtm-1-2/std#DE.Timing.VISITDY>
  rdf:type mms:DataElement ;
  mms:context sdtm-1-2:TimingVariables ;
  mms:dataElementDescription "Planned study day of VISIT. Should be an integer."^^xsd:string ;
  mms:dataElementLabel "Planned Study Day of Visit"^^xsd:string ;
  mms:dataElementName "VISITDY"^^xsd:string ;
  mms:dataElementType "xsd:integer"^^xsd:anySimpleType ;
  mms:ordinal "3"^^xsd:positiveInteger ;
  cdiscs:dataElementRole <http://rdf.cdisc.org/sdtm-1-2/schema#Classifier.TimingVariable> ;
  cdiscs:dataElementType <http://rdf.cdisc.org/schema#Classifier.Numeric> ;
  sdtms-1-2:supportedBySDTMIG "true"^^xsd:boolean ;
  sdtms-1-2:supportedBySEND "true"^^xsd:boolean ;
.
<http://rdf.cdisc.org/sdtm-1-2/std#DE.Timing.VISITNUM>
  rdf:type mms:DataElement ;
  mms:context sdtm-1-2:TimingVariables ;
  mms:dataElementDescription "Clinical encounter number. Numeric version of VISIT, used for sorting."^^xsd:string ;
  mms:dataElementLabel "Visit Number"^^xsd:string ;
  mms:dataElementName "VISITNUM"^^xsd:string ;
  mms:dataElementType "xsd:decimal"^^xsd:anySimpleType ;
  mms:ordinal "1"^^xsd:positiveInteger ;
  cdiscs:dataElementRole <http://rdf.cdisc.org/sdtm-1-2/schema#Classifier.TimingVariable> ;
  cdiscs:dataElementType <http://rdf.cdisc.org/schema#Classifier.Numeric> ;
  sdtms-1-2:supportedBySDTMIG "true"^^xsd:boolean ;
  sdtms-1-2:supportedBySEND "true"^^xsd:boolean ;
.
sdtm-1-2:EventVariables
  rdf:type mms:VariableGrouping ;
  mms:context <http://rdf.cdisc.org/sdtm-1-2/std#Model.SDTM-1-2> ;
  mms:contextLabel "Event Observation Class Variables"^^xsd:string ;
  mms:ordinal "2"^^xsd:positiveInteger ;
.
sdtm-1-2:FindingVariables
  rdf:type mms:VariableGrouping ;
  mms:context <http://rdf.cdisc.org/sdtm-1-2/std#Model.SDTM-1-2> ;
  mms:contextLabel "Findings Observation Class Variables"^^xsd:string ;
  mms:ordinal "3"^^xsd:positiveInteger ;
.
sdtm-1-2:FindingsAboutVariables
  rdf:type mms:VariableGrouping ;
  mms:context <http://rdf.cdisc.org/sdtm-1-2/std#Model.SDTM-1-2> ;
  mms:contextLabel "Findings About Events or Interventions Variables"^^xsd:string ;
  mms:ordinal "4"^^xsd:positiveInteger ;
.
sdtm-1-2:IdentifierVariables
  rdf:type mms:VariableGrouping ;
  mms:context <http://rdf.cdisc.org/sdtm-1-2/std#Model.SDTM-1-2> ;
  mms:contextLabel "General Observation Class Identifier Variables"^^xsd:string ;
  mms:ordinal "5"^^xsd:positiveInteger ;
.
sdtm-1-2:InterventionVariables
  rdf:type mms:VariableGrouping ;
  mms:context <http://rdf.cdisc.org/sdtm-1-2/std#Model.SDTM-1-2> ;
  mms:contextLabel "Interventions Observation Class Variables"^^xsd:string ;
  mms:ordinal "1"^^xsd:positiveInteger ;
.
<http://rdf.cdisc.org/sdtm-1-2/std#Model.SDTM-1-2>
  rdf:type mms:Model ;
  mms:contextDescription "The Study Data Tabulation Model is a CDISC defined model for the tabulation of clinical trial data. Among others, it specifies the general structure of the General Observation Classes, more specifically the The Study Data Tabulation Model is a CDISC defined model for the tabulation of clinical trial data. Among others, it specifies the general structure of the General Observation Classes, more specifically the Interventions, Events, and Findings classes."^^xsd:string ;
  mms:contextLabel "Study Data Tabulation Model (SDTM) Version 1.2"^^xsd:string ;
  mms:contextName "sdtm-1-2"^^xsd:string ;
.
sdtm-1-2:TimingVariables
  rdf:type mms:VariableGrouping ;
  mms:context <http://rdf.cdisc.org/sdtm-1-2/std#Model.SDTM-1-2> ;
  mms:contextLabel "General Observation Class Timing Variables"^^xsd:string ;
  mms:ordinal "6"^^xsd:positiveInteger ;
.
