# baseURI: http://rdf.cdisc.org/std/adamig-1-0
# imports: http://rdf.cdisc.org/adam-terminology
# imports: http://rdf.cdisc.org/std/adam-2-1
# imports: http://rdf.cdisc.org/std/schema

# c14n-version: 3
@prefix adam-2-1: <http://rdf.cdisc.org/std/adam-2-1#> .
@prefix adamct: <http://rdf.cdisc.org/adam-terminology#> .
@prefix adamig-1-0: <http://rdf.cdisc.org/std/adamig-1-0#> .
@prefix cdiscs: <http://rdf.cdisc.org/std/schema#> .
@prefix dc: <http://purl.org/dc/elements/1.1/> .
@prefix mms: <http://rdf.cdisc.org/mms#> .
@prefix owl: <http://www.w3.org/2002/07/owl#> .
@prefix rdf: <http://www.w3.org/1999/02/22-rdf-syntax-ns#> .
@prefix rdfs: <http://www.w3.org/2000/01/rdf-schema#> .
@prefix sdtmct: <http://rdf.cdisc.org/sdtm-terminology#> .
@prefix skos: <http://www.w3.org/2004/02/skos/core#> .
@prefix xsd: <http://www.w3.org/2001/XMLSchema#> .
<http://rdf.cdisc.org/std/adam-2-1#Classifier.LabRelatedAnalysisVariable>
  rdf:type adam-2-1:DataElementRole ;
.
<http://rdf.cdisc.org/std/adamig-1-0>
  rdf:type owl:Ontology ;
  dc:creator "FDA/PhUSE CSS Semantic Technology Project"^^xsd:string ;
  owl:imports <http://rdf.cdisc.org/adam-terminology> ;
  owl:imports <http://rdf.cdisc.org/std/adam-2-1> ;
  owl:imports <http://rdf.cdisc.org/std/schema> ;
  owl:versionInfo "1.0"^^xsd:string ;
  skos:definition "An ontology representing the content of the Analysis Data Model Implementation Guide Version 1.0 as published by CDISC."^^xsd:string ;
  skos:prefLabel "CDISC ADaM Implementation Guide 1.0"^^xsd:string ;
.
<http://rdf.cdisc.org/std/adamig-1-0#ADAE.DescriptiveVariables>
  rdf:type mms:VariableGrouping ;
  mms:context <http://rdf.cdisc.org/std/adamig-1-0#Table.ADAE> ;
  mms:contextLabel "ADAE Descriptive Variables"^^xsd:string ;
  mms:ordinal "7"^^xsd:positiveInteger ;
.
<http://rdf.cdisc.org/std/adamig-1-0#ADAE.DictionaryCodingVariables>
  rdf:type mms:VariableGrouping ;
  mms:context <http://rdf.cdisc.org/std/adamig-1-0#Table.ADAE> ;
  mms:contextLabel "ADAE Dictionary Coding Variables"^^xsd:string ;
  mms:ordinal "2"^^xsd:positiveInteger ;
.
<http://rdf.cdisc.org/std/adamig-1-0#ADAE.IdentifierVariables>
  rdf:type mms:VariableGrouping ;
  mms:context <http://rdf.cdisc.org/std/adamig-1-0#Table.ADAE> ;
  mms:contextLabel "ADAE Identifier Variables"^^xsd:string ;
  mms:ordinal "1"^^xsd:positiveInteger ;
.
<http://rdf.cdisc.org/std/adamig-1-0#ADAE.IndicatorVariables>
  rdf:type mms:VariableGrouping ;
  mms:context <http://rdf.cdisc.org/std/adamig-1-0#Table.ADAE> ;
  mms:contextLabel "ADAE Indicator Variables"^^xsd:string ;
  mms:ordinal "4"^^xsd:positiveInteger ;
.
<http://rdf.cdisc.org/std/adamig-1-0#ADAE.MedDRAVariables>
  rdf:type mms:VariableGrouping ;
  mms:context <http://rdf.cdisc.org/std/adamig-1-0#Table.ADAE> ;
  mms:contextLabel "ADAE MedDRA Query Variables"^^xsd:string ;
  mms:ordinal "8"^^xsd:positiveInteger ;
.
<http://rdf.cdisc.org/std/adamig-1-0#ADAE.OccurrenceVariables>
  rdf:type mms:VariableGrouping ;
  mms:context <http://rdf.cdisc.org/std/adamig-1-0#Table.ADAE> ;
  mms:contextLabel "ADAE Occurrence Flag Variables"^^xsd:string ;
  mms:ordinal "5"^^xsd:positiveInteger ;
.
<http://rdf.cdisc.org/std/adamig-1-0#ADAE.OriginalorPriorCodingVariables>
  rdf:type mms:VariableGrouping ;
  mms:context <http://rdf.cdisc.org/std/adamig-1-0#Table.ADAE> ;
  mms:contextLabel "ADAE Original or Prior Coding Variables"^^xsd:string ;
  mms:ordinal "9"^^xsd:positiveInteger ;
.
<http://rdf.cdisc.org/std/adamig-1-0#ADAE.TimingVariables>
  rdf:type mms:VariableGrouping ;
  mms:context <http://rdf.cdisc.org/std/adamig-1-0#Table.ADAE> ;
  mms:contextLabel "ADAE Timing Variables"^^xsd:string ;
  mms:ordinal "3"^^xsd:positiveInteger ;
.
<http://rdf.cdisc.org/std/adamig-1-0#ADAE.TreatmentVariables>
  rdf:type mms:VariableGrouping ;
  mms:context <http://rdf.cdisc.org/std/adamig-1-0#Table.ADAE> ;
  mms:contextLabel "ADAE Treatment Variables"^^xsd:string ;
  mms:ordinal "6"^^xsd:positiveInteger ;
.
<http://rdf.cdisc.org/std/adamig-1-0#ADSL.PopulationIndicatorVariables>
  rdf:type mms:VariableGrouping ;
  mms:context <http://rdf.cdisc.org/std/adamig-1-0#Table.ADSL> ;
  mms:contextLabel "ADSL Population Indicator Variables"^^xsd:string ;
  mms:ordinal "3"^^xsd:positiveInteger ;
.
<http://rdf.cdisc.org/std/adamig-1-0#ADSL.StudyIdentifierVariables>
  rdf:type mms:VariableGrouping ;
  mms:context <http://rdf.cdisc.org/std/adamig-1-0#Table.ADSL> ;
  mms:contextLabel "ADSL Study Identifier Variables"^^xsd:string ;
  mms:ordinal "1"^^xsd:positiveInteger ;
.
<http://rdf.cdisc.org/std/adamig-1-0#ADSL.SubjectDemographicVariables>
  rdf:type mms:VariableGrouping ;
  mms:context <http://rdf.cdisc.org/std/adamig-1-0#Table.ADSL> ;
  mms:contextLabel "ADSL Subject Demographics Variables"^^xsd:string ;
  mms:ordinal "2"^^xsd:positiveInteger ;
.
<http://rdf.cdisc.org/std/adamig-1-0#ADSL.TreatmentVariables>
  rdf:type mms:VariableGrouping ;
  mms:context <http://rdf.cdisc.org/std/adamig-1-0#Table.ADSL> ;
  mms:contextLabel "ADSL Treatment Variables"^^xsd:string ;
  mms:ordinal "4"^^xsd:positiveInteger ;
.
<http://rdf.cdisc.org/std/adamig-1-0#ADSL.TrialDateVariables>
  rdf:type mms:VariableGrouping ;
  mms:context <http://rdf.cdisc.org/std/adamig-1-0#Table.ADSL> ;
  mms:contextLabel "ADSL Trial Date Variables"^^xsd:string ;
  mms:ordinal "5"^^xsd:positiveInteger ;
.
<http://rdf.cdisc.org/std/adamig-1-0#BDS.AnalysisDescriptorVariables>
  rdf:type mms:VariableGrouping ;
  mms:context <http://rdf.cdisc.org/std/adamig-1-0#Table.BDS> ;
  mms:contextLabel "BDS Analysis Descriptor Variables"^^xsd:string ;
  mms:ordinal "5"^^xsd:positiveInteger ;
.
<http://rdf.cdisc.org/std/adamig-1-0#BDS.AnalysisParameterVariables>
  rdf:type mms:VariableGrouping ;
  mms:context <http://rdf.cdisc.org/std/adamig-1-0#Table.BDS> ;
  mms:contextLabel "BDS Analysis Parameter Variables"^^xsd:string ;
  mms:ordinal "4"^^xsd:positiveInteger ;
.
<http://rdf.cdisc.org/std/adamig-1-0#BDS.AnalysisVisitWindowingVariables>
  rdf:type mms:VariableGrouping ;
  mms:context <http://rdf.cdisc.org/std/adamig-1-0#Table.BDS> ;
  mms:contextLabel "BDS Analysis Visit Windowing Variables"^^xsd:string ;
  mms:ordinal "6"^^xsd:positiveInteger ;
.
<http://rdf.cdisc.org/std/adamig-1-0#BDS.DataPointTraceabilityVariables>
  rdf:type mms:VariableGrouping ;
  mms:context <http://rdf.cdisc.org/std/adamig-1-0#Table.BDS> ;
  mms:contextLabel "BDS Data Point Traceability Variables"^^xsd:string ;
  mms:ordinal "10"^^xsd:positiveInteger ;
.
<http://rdf.cdisc.org/std/adamig-1-0#BDS.IndicatorVariables>
  rdf:type mms:VariableGrouping ;
  mms:context <http://rdf.cdisc.org/std/adamig-1-0#Table.BDS> ;
  mms:contextLabel "BDS Indicator Variables"^^xsd:string ;
  mms:ordinal "9"^^xsd:positiveInteger ;
.
<http://rdf.cdisc.org/std/adamig-1-0#BDS.LabRelatedAnalysisVariables>
  rdf:type mms:VariableGrouping ;
  mms:context <http://rdf.cdisc.org/std/adamig-1-0#Table.BDS> ;
  mms:contextLabel "BDS Lab Related Analysis Variables"^^xsd:string ;
  mms:ordinal "8"^^xsd:positiveInteger ;
.
<http://rdf.cdisc.org/std/adamig-1-0#BDS.SubjectIdentifierVariables>
  rdf:type mms:VariableGrouping ;
  mms:context <http://rdf.cdisc.org/std/adamig-1-0#Table.BDS> ;
  mms:contextLabel "BDS Subject Identifier Variables"^^xsd:string ;
  mms:ordinal "1"^^xsd:positiveInteger ;
.
<http://rdf.cdisc.org/std/adamig-1-0#BDS.TimeToEventVariables>
  rdf:type mms:VariableGrouping ;
  mms:context <http://rdf.cdisc.org/std/adamig-1-0#Table.BDS> ;
  mms:contextLabel "BDS Time to Event Variables"^^xsd:string ;
  mms:ordinal "7"^^xsd:positiveInteger ;
.
<http://rdf.cdisc.org/std/adamig-1-0#BDS.TimingVariables>
  rdf:type mms:VariableGrouping ;
  mms:context <http://rdf.cdisc.org/std/adamig-1-0#Table.BDS> ;
  mms:contextLabel "BDS Timing Variables"^^xsd:string ;
  mms:ordinal "3"^^xsd:positiveInteger ;
.
<http://rdf.cdisc.org/std/adamig-1-0#BDS.TreatmentVariables>
  rdf:type mms:VariableGrouping ;
  mms:context <http://rdf.cdisc.org/std/adamig-1-0#Table.BDS> ;
  mms:contextLabel "BDS Treatment Variables"^^xsd:string ;
  mms:ordinal "2"^^xsd:positiveInteger ;
.
<http://rdf.cdisc.org/std/adamig-1-0#Classifier.ConditionalVariable>
  rdf:type cdiscs:DataElementCompliance ;
  rdfs:label "Conditional Variable" ;
  skos:definition "The variable must be included in the dataset in certain circumstances."^^xsd:string ;
.
<http://rdf.cdisc.org/std/adamig-1-0#Classifier.PermissibleVariable>
  rdf:type cdiscs:DataElementCompliance ;
  rdfs:label "Permissible Variable" ;
  skos:definition "The variable may be included in the dataset, but is not required."^^xsd:string ;
.
<http://rdf.cdisc.org/std/adamig-1-0#Classifier.RequiredVariable>
  rdf:type cdiscs:DataElementCompliance ;
  rdfs:label "Required Variable" ;
  skos:definition "The variable must be included in the dataset."^^xsd:string ;
.
<http://rdf.cdisc.org/std/adamig-1-0#Column.ADAE.ADURN>
  rdf:type mms:Column ;
  mms:context <http://rdf.cdisc.org/std/adamig-1-0#ADAE.TimingVariables> ;
  mms:dataElementDescription "Derive from ASTDT (or ASTDTM) and AENDT (or AENDTM)."^^xsd:string ;
  mms:dataElementLabel "AE Duration (N)"^^xsd:string ;
  mms:dataElementName "ADURN"^^xsd:string ;
  mms:dataElementType "xsd:integer"^^xsd:anySimpleType ;
  mms:ordinal "33"^^xsd:positiveInteger ;
  cdiscs:dataElementCompliance <http://rdf.cdisc.org/std/adamig-1-0#Classifier.PermissibleVariable> ;
  cdiscs:dataElementType <http://rdf.cdisc.org/std/schema#Classifier.Numeric> ;
.
<http://rdf.cdisc.org/std/adamig-1-0#Column.ADAE.ADURU>
  rdf:type mms:Column ;
  mms:context <http://rdf.cdisc.org/std/adamig-1-0#ADAE.TimingVariables> ;
  mms:dataElementDescription "Conditional on whether ADURN is included."^^xsd:string ;
  mms:dataElementLabel "AE Duration Units"^^xsd:string ;
  mms:dataElementName "ADURU"^^xsd:string ;
  mms:dataElementType "xsd:string"^^xsd:anySimpleType ;
  mms:ordinal "34"^^xsd:positiveInteger ;
  cdiscs:dataElementCompliance <http://rdf.cdisc.org/std/adamig-1-0#Classifier.ConditionalVariable> ;
  cdiscs:dataElementType <http://rdf.cdisc.org/std/schema#Classifier.Character> ;
.
<http://rdf.cdisc.org/std/adamig-1-0#Column.ADAE.AEACN>
  rdf:type mms:Column ;
  mms:context <http://rdf.cdisc.org/std/adamig-1-0#ADAE.DescriptiveVariables> ;
  mms:dataElementDescription "AE.AEACN"^^xsd:string ;
  mms:dataElementLabel "Action Taken with Study Treatment"^^xsd:string ;
  mms:dataElementName "AEACN"^^xsd:string ;
  mms:dataElementType "xsd:string"^^xsd:anySimpleType ;
  mms:dataElementValueDomain sdtmct:C66767 ;
  mms:ordinal "74"^^xsd:positiveInteger ;
  cdiscs:controlledTermsOrFormat "(ACN)"^^xsd:string ;
  cdiscs:dataElementCompliance <http://rdf.cdisc.org/std/adamig-1-0#Classifier.PermissibleVariable> ;
  cdiscs:dataElementType <http://rdf.cdisc.org/std/schema#Classifier.Character> ;
.
<http://rdf.cdisc.org/std/adamig-1-0#Column.ADAE.AEBDSYCD>
  rdf:type mms:Column ;
  mms:context <http://rdf.cdisc.org/std/adamig-1-0#ADAE.DictionaryCodingVariables> ;
  mms:dataElementDescription "AE.AEBDSYCD This would be copied from the SDTM AE domain or supplemental qualifier dataset. Include the dictionary version in the variable metadata."^^xsd:string ;
  mms:dataElementLabel "Body System or Organ Class Code"^^xsd:string ;
  mms:dataElementName "AEBDSYCD"^^xsd:string ;
  mms:dataElementType "xsd:integer"^^xsd:anySimpleType ;
  mms:ordinal "9"^^xsd:positiveInteger ;
  cdiscs:controlledTermsOrFormat "MedDRA"^^xsd:string ;
  cdiscs:dataElementCompliance <http://rdf.cdisc.org/std/adamig-1-0#Classifier.PermissibleVariable> ;
  cdiscs:dataElementType <http://rdf.cdisc.org/std/schema#Classifier.Numeric> ;
.
<http://rdf.cdisc.org/std/adamig-1-0#Column.ADAE.AEBODSYS>
  rdf:type mms:Column ;
  mms:context <http://rdf.cdisc.org/std/adamig-1-0#ADAE.DictionaryCodingVariables> ;
  mms:dataElementDescription "AE.AEBODSYS This is typically one of the primary variables used by the Sponsor in an AE analysis and would be brought in from the SDTM AE domain. As mentioned above, all other SDTM AE and SUPPAE domain variables needed for analysis or traceability should also be included. Include the dictionary version in the variable metadata."^^xsd:string ;
  mms:dataElementLabel "Body System or Organ Class"^^xsd:string ;
  mms:dataElementName "AEBODSYS"^^xsd:string ;
  mms:dataElementType "xsd:string"^^xsd:anySimpleType ;
  mms:ordinal "8"^^xsd:positiveInteger ;
  cdiscs:controlledTermsOrFormat "MedDRA"^^xsd:string ;
  cdiscs:dataElementCompliance <http://rdf.cdisc.org/std/adamig-1-0#Classifier.RequiredVariable> ;
  cdiscs:dataElementType <http://rdf.cdisc.org/std/schema#Classifier.Character> ;
.
<http://rdf.cdisc.org/std/adamig-1-0#Column.ADAE.AEDECOD>
  rdf:type mms:Column ;
  mms:context <http://rdf.cdisc.org/std/adamig-1-0#ADAE.DictionaryCodingVariables> ;
  mms:dataElementDescription "AE.AEDECOD This is typically one of the primary variables used in an AE analysis and would be brought in from the SDTM AE domain. Equivalent to the Preferred Term (PT in MedDRA). As mentioned above, all other SDTM AE and SUPPAE domain variables needed for analysis or traceability should also be included. Include the dictionary version in the variable metadata."^^xsd:string ;
  mms:dataElementLabel "Dictionary-Derived Term"^^xsd:string ;
  mms:dataElementName "AEDECOD"^^xsd:string ;
  mms:dataElementType "xsd:string"^^xsd:anySimpleType ;
  mms:ordinal "7"^^xsd:positiveInteger ;
  cdiscs:controlledTermsOrFormat "MedDRA"^^xsd:string ;
  cdiscs:dataElementCompliance <http://rdf.cdisc.org/std/adamig-1-0#Classifier.RequiredVariable> ;
  cdiscs:dataElementType <http://rdf.cdisc.org/std/schema#Classifier.Character> ;
.
<http://rdf.cdisc.org/std/adamig-1-0#Column.ADAE.AEDUR>
  rdf:type mms:Column ;
  mms:context <http://rdf.cdisc.org/std/adamig-1-0#ADAE.TimingVariables> ;
  mms:dataElementDescription "AE.AEDUR Because AEDUR is a collected field and ADURN is derived, the values will often differ. Including AEDUR in addition to ADURN can add traceability."^^xsd:string ;
  mms:dataElementLabel "Duration of Adverse Event"^^xsd:string ;
  mms:dataElementName "AEDUR"^^xsd:string ;
  mms:dataElementType "xsd:duration"^^xsd:anySimpleType ;
  mms:ordinal "35"^^xsd:positiveInteger ;
  cdiscs:controlledTermsOrFormat "ISO 8601"^^xsd:string ;
  cdiscs:dataElementCompliance <http://rdf.cdisc.org/std/adamig-1-0#Classifier.PermissibleVariable> ;
  cdiscs:dataElementType <http://rdf.cdisc.org/std/schema#Classifier.Character> ;
.
<http://rdf.cdisc.org/std/adamig-1-0#Column.ADAE.AEENDTC>
  rdf:type mms:Column ;
  mms:context <http://rdf.cdisc.org/std/adamig-1-0#ADAE.TimingVariables> ;
  mms:dataElementDescription "Copied from AE.AEENDTC."^^xsd:string ;
  mms:dataElementLabel "End Date/Time of Adverse Event"^^xsd:string ;
  mms:dataElementName "AEENDTC"^^xsd:string ;
  mms:dataElementType "xsd:datetime"^^xsd:anySimpleType ;
  mms:ordinal "24"^^xsd:positiveInteger ;
  cdiscs:controlledTermsOrFormat "ISO 8601"^^xsd:string ;
  cdiscs:dataElementCompliance <http://rdf.cdisc.org/std/adamig-1-0#Classifier.PermissibleVariable> ;
  cdiscs:dataElementType <http://rdf.cdisc.org/std/schema#Classifier.Character> ;
.
<http://rdf.cdisc.org/std/adamig-1-0#Column.ADAE.AEENDY>
  rdf:type mms:Column ;
  mms:context <http://rdf.cdisc.org/std/adamig-1-0#ADAE.TimingVariables> ;
  mms:dataElementDescription "AE.AEENDY AENDY may differ from AEENDY due to date imputation and the option in ADaM to use a reference date other than SDTM's RFSTDTC. Including AE.AEENDY in addition to AENDY adds traceability."^^xsd:string ;
  mms:dataElementLabel "Study Day of End of Adverse Event"^^xsd:string ;
  mms:dataElementName "AEENDY"^^xsd:string ;
  mms:dataElementType "xsd:integer"^^xsd:anySimpleType ;
  mms:ordinal "32"^^xsd:positiveInteger ;
  cdiscs:dataElementCompliance <http://rdf.cdisc.org/std/adamig-1-0#Classifier.PermissibleVariable> ;
  cdiscs:dataElementType <http://rdf.cdisc.org/std/schema#Classifier.Numeric> ;
.
<http://rdf.cdisc.org/std/adamig-1-0#Column.ADAE.AEHLGT>
  rdf:type mms:Column ;
  mms:context <http://rdf.cdisc.org/std/adamig-1-0#ADAE.DictionaryCodingVariables> ;
  mms:dataElementDescription "AE.AEHLGT This would be copied from the SDTM AE domain or supplemental qualifier dataset. Include the dictionary version in the variable metadata. Conditional on whether used for analysis."^^xsd:string ;
  mms:dataElementLabel "High Level Group Term"^^xsd:string ;
  mms:dataElementName "AEHLGT"^^xsd:string ;
  mms:dataElementType "xsd:string"^^xsd:anySimpleType ;
  mms:ordinal "15"^^xsd:positiveInteger ;
  cdiscs:controlledTermsOrFormat "MedDRA"^^xsd:string ;
  cdiscs:dataElementCompliance <http://rdf.cdisc.org/std/adamig-1-0#Classifier.ConditionalVariable> ;
  cdiscs:dataElementType <http://rdf.cdisc.org/std/schema#Classifier.Character> ;
.
<http://rdf.cdisc.org/std/adamig-1-0#Column.ADAE.AEHLGTCD>
  rdf:type mms:Column ;
  mms:context <http://rdf.cdisc.org/std/adamig-1-0#ADAE.DictionaryCodingVariables> ;
  mms:dataElementDescription "AE.AEHLGTCD This would be copied from the SDTM AE domain or supplemental qualifier dataset. Include the dictionary version in the variable metadata."^^xsd:string ;
  mms:dataElementLabel "High Level Group Term Code"^^xsd:string ;
  mms:dataElementName "AEHLGTCD"^^xsd:string ;
  mms:dataElementType "xsd:integer"^^xsd:anySimpleType ;
  mms:ordinal "16"^^xsd:positiveInteger ;
  cdiscs:controlledTermsOrFormat "MedDRA"^^xsd:string ;
  cdiscs:dataElementCompliance <http://rdf.cdisc.org/std/adamig-1-0#Classifier.PermissibleVariable> ;
  cdiscs:dataElementType <http://rdf.cdisc.org/std/schema#Classifier.Numeric> ;
.
<http://rdf.cdisc.org/std/adamig-1-0#Column.ADAE.AEHLT>
  rdf:type mms:Column ;
  mms:context <http://rdf.cdisc.org/std/adamig-1-0#ADAE.DictionaryCodingVariables> ;
  mms:dataElementDescription "AE.AEHLT This would be copied from the SDTM AE domain or supplemental qualifier dataset. Include the dictionary version in the variable metadata. Conditional on whether used for analysis."^^xsd:string ;
  mms:dataElementLabel "High Level Term"^^xsd:string ;
  mms:dataElementName "AEHLT"^^xsd:string ;
  mms:dataElementType "xsd:string"^^xsd:anySimpleType ;
  mms:ordinal "13"^^xsd:positiveInteger ;
  cdiscs:controlledTermsOrFormat "MedDRA"^^xsd:string ;
  cdiscs:dataElementCompliance <http://rdf.cdisc.org/std/adamig-1-0#Classifier.ConditionalVariable> ;
  cdiscs:dataElementType <http://rdf.cdisc.org/std/schema#Classifier.Character> ;
.
<http://rdf.cdisc.org/std/adamig-1-0#Column.ADAE.AEHLTCD>
  rdf:type mms:Column ;
  mms:context <http://rdf.cdisc.org/std/adamig-1-0#ADAE.DictionaryCodingVariables> ;
  mms:dataElementDescription "AE.AEHLTCD This would be copied from the SDTM AE domain or supplemental qualifier dataset. Include the dictionary version in the variable metadata."^^xsd:string ;
  mms:dataElementLabel "High Level Term Code"^^xsd:string ;
  mms:dataElementName "AEHLTCD"^^xsd:string ;
  mms:dataElementType "xsd:integer"^^xsd:anySimpleType ;
  mms:ordinal "14"^^xsd:positiveInteger ;
  cdiscs:controlledTermsOrFormat "MedDRA"^^xsd:string ;
  cdiscs:dataElementCompliance <http://rdf.cdisc.org/std/adamig-1-0#Classifier.PermissibleVariable> ;
  cdiscs:dataElementType <http://rdf.cdisc.org/std/schema#Classifier.Numeric> ;
.
<http://rdf.cdisc.org/std/adamig-1-0#Column.ADAE.AELLT>
  rdf:type mms:Column ;
  mms:context <http://rdf.cdisc.org/std/adamig-1-0#ADAE.DictionaryCodingVariables> ;
  mms:dataElementDescription "AE.AELLT This would be copied from the SDTM AE domain or supplemental qualifier dataset. Include the dictionary version in the variable metadata. Conditional on whether used for analysis."^^xsd:string ;
  mms:dataElementLabel "Lowest Level Term"^^xsd:string ;
  mms:dataElementName "AELLT"^^xsd:string ;
  mms:dataElementType "xsd:string"^^xsd:anySimpleType ;
  mms:ordinal "10"^^xsd:positiveInteger ;
  cdiscs:controlledTermsOrFormat "MedDRA"^^xsd:string ;
  cdiscs:dataElementCompliance <http://rdf.cdisc.org/std/adamig-1-0#Classifier.ConditionalVariable> ;
  cdiscs:dataElementType <http://rdf.cdisc.org/std/schema#Classifier.Character> ;
.
<http://rdf.cdisc.org/std/adamig-1-0#Column.ADAE.AELLTCD>
  rdf:type mms:Column ;
  mms:context <http://rdf.cdisc.org/std/adamig-1-0#ADAE.DictionaryCodingVariables> ;
  mms:dataElementDescription "AE.AELLTCD This would be copied from the SDTM AE domain or supplemental qualifier dataset. Include the dictionary version in the variable metadata."^^xsd:string ;
  mms:dataElementLabel "Lowest Level Term Code"^^xsd:string ;
  mms:dataElementName "AELLTCD"^^xsd:string ;
  mms:dataElementType "xsd:integer"^^xsd:anySimpleType ;
  mms:ordinal "11"^^xsd:positiveInteger ;
  cdiscs:controlledTermsOrFormat "MedDRA"^^xsd:string ;
  cdiscs:dataElementCompliance <http://rdf.cdisc.org/std/adamig-1-0#Classifier.PermissibleVariable> ;
  cdiscs:dataElementType <http://rdf.cdisc.org/std/schema#Classifier.Numeric> ;
.
<http://rdf.cdisc.org/std/adamig-1-0#Column.ADAE.AENDT>
  rdf:type mms:Column ;
  mms:context <http://rdf.cdisc.org/std/adamig-1-0#ADAE.TimingVariables> ;
  mms:dataElementDescription "Created from converting AE.AEENDTC from character ISO8601 format to numeric date format, applying imputation rules as specified in the SAP or metadata. Conditional on whether end date is pertinent for study and AE.AEENDTC is populated in SDTM."^^xsd:string ;
  mms:dataElementLabel "Analysis End Date"^^xsd:string ;
  mms:dataElementName "AENDT"^^xsd:string ;
  mms:dataElementType "xsd:integer"^^xsd:anySimpleType ;
  mms:ordinal "25"^^xsd:positiveInteger ;
  cdiscs:dataElementCompliance <http://rdf.cdisc.org/std/adamig-1-0#Classifier.ConditionalVariable> ;
  cdiscs:dataElementType <http://rdf.cdisc.org/std/schema#Classifier.Numeric> ;
.
<http://rdf.cdisc.org/std/adamig-1-0#Column.ADAE.AENDTF>
  rdf:type mms:Column ;
  mms:context <http://rdf.cdisc.org/std/adamig-1-0#ADAE.TimingVariables> ;
  mms:dataElementDescription "Created during conversion of AE.AEENDTC from character to numeric. Imputation flags are described in the ADaMIG V1.0 [2] General Timing Variable Convention #6. Conditional on whether any imputation is done for the end date."^^xsd:string ;
  mms:dataElementLabel "Analysis End Date Imputation Flag"^^xsd:string ;
  mms:dataElementName "AENDTF"^^xsd:string ;
  mms:dataElementType "xsd:string"^^xsd:anySimpleType ;
  mms:dataElementValueDomain adamct:C81223 ;
  mms:ordinal "27"^^xsd:positiveInteger ;
  cdiscs:controlledTermsOrFormat "(DATEFL)"^^xsd:string ;
  cdiscs:dataElementCompliance <http://rdf.cdisc.org/std/adamig-1-0#Classifier.ConditionalVariable> ;
  cdiscs:dataElementType <http://rdf.cdisc.org/std/schema#Classifier.Character> ;
.
<http://rdf.cdisc.org/std/adamig-1-0#Column.ADAE.AENDTM>
  rdf:type mms:Column ;
  mms:context <http://rdf.cdisc.org/std/adamig-1-0#ADAE.TimingVariables> ;
  mms:dataElementDescription "Created from converting AE.AEENDTC from character ISO8601 format to numeric date-time format, applying imputation rules as specified in the SAP or metadata. Conditional on whether end date-time is pertinent for study and AE.AEENDTC with time is populated in SDTM."^^xsd:string ;
  mms:dataElementLabel "Analysis End Date/Time"^^xsd:string ;
  mms:dataElementName "AENDTM"^^xsd:string ;
  mms:dataElementType "xsd:integer"^^xsd:anySimpleType ;
  mms:ordinal "26"^^xsd:positiveInteger ;
  cdiscs:dataElementCompliance <http://rdf.cdisc.org/std/adamig-1-0#Classifier.ConditionalVariable> ;
  cdiscs:dataElementType <http://rdf.cdisc.org/std/schema#Classifier.Numeric> ;
.
<http://rdf.cdisc.org/std/adamig-1-0#Column.ADAE.AENDY>
  rdf:type mms:Column ;
  mms:context <http://rdf.cdisc.org/std/adamig-1-0#ADAE.TimingVariables> ;
  mms:dataElementDescription "Example derivation: AENDT - ADSL.TRTSDT + 1 if AENDT >= TRTSDT, else AENDT - ADSL.TRTSDT if AENDT < TRTSDT. This variable may instead be copied from AEENDY."^^xsd:string ;
  mms:dataElementLabel "Analysis End Relative Day"^^xsd:string ;
  mms:dataElementName "AENDY"^^xsd:string ;
  mms:dataElementType "xsd:integer"^^xsd:anySimpleType ;
  mms:ordinal "31"^^xsd:positiveInteger ;
  cdiscs:dataElementCompliance <http://rdf.cdisc.org/std/adamig-1-0#Classifier.PermissibleVariable> ;
  cdiscs:dataElementType <http://rdf.cdisc.org/std/schema#Classifier.Numeric> ;
.
<http://rdf.cdisc.org/std/adamig-1-0#Column.ADAE.AENTMF>
  rdf:type mms:Column ;
  mms:context <http://rdf.cdisc.org/std/adamig-1-0#ADAE.TimingVariables> ;
  mms:dataElementDescription "Created during conversion of AE.AEENDTC from character to numeric. Imputation flags are described in the ADaMIG V1.0 [2] General Timing Variable Convention #6. Conditional on whether any imputation is done for the end time."^^xsd:string ;
  mms:dataElementLabel "Analysis End Time Imputation Flag"^^xsd:string ;
  mms:dataElementName "AENTMF"^^xsd:string ;
  mms:dataElementType "xsd:string"^^xsd:anySimpleType ;
  mms:dataElementValueDomain adamct:C81226 ;
  mms:ordinal "28"^^xsd:positiveInteger ;
  cdiscs:controlledTermsOrFormat "(TIMEFL)"^^xsd:string ;
  cdiscs:dataElementCompliance <http://rdf.cdisc.org/std/adamig-1-0#Classifier.ConditionalVariable> ;
  cdiscs:dataElementType <http://rdf.cdisc.org/std/schema#Classifier.Character> ;
.
<http://rdf.cdisc.org/std/adamig-1-0#Column.ADAE.AEPTCD>
  rdf:type mms:Column ;
  mms:context <http://rdf.cdisc.org/std/adamig-1-0#ADAE.DictionaryCodingVariables> ;
  mms:dataElementDescription "AE.AEPTCD This would be copied from the SDTM AE domain or supplemental qualifier dataset. Include the dictionary version in the variable metadata."^^xsd:string ;
  mms:dataElementLabel "Preferred Term Code"^^xsd:string ;
  mms:dataElementName "AEPTCD"^^xsd:string ;
  mms:dataElementType "xsd:integer"^^xsd:anySimpleType ;
  mms:ordinal "12"^^xsd:positiveInteger ;
  cdiscs:controlledTermsOrFormat "MedDRA"^^xsd:string ;
  cdiscs:dataElementCompliance <http://rdf.cdisc.org/std/adamig-1-0#Classifier.PermissibleVariable> ;
  cdiscs:dataElementType <http://rdf.cdisc.org/std/schema#Classifier.Numeric> ;
.
<http://rdf.cdisc.org/std/adamig-1-0#Column.ADAE.AEREL>
  rdf:type mms:Column ;
  mms:context <http://rdf.cdisc.org/std/adamig-1-0#ADAE.DescriptiveVariables> ;
  mms:dataElementDescription "AE.AEREL"^^xsd:string ;
  mms:dataElementLabel "Causality"^^xsd:string ;
  mms:dataElementName "AEREL"^^xsd:string ;
  mms:dataElementType "xsd:string"^^xsd:anySimpleType ;
  mms:ordinal "62"^^xsd:positiveInteger ;
  cdiscs:controlledTermsOrFormat "*"^^xsd:string ;
  cdiscs:dataElementCompliance <http://rdf.cdisc.org/std/adamig-1-0#Classifier.PermissibleVariable> ;
  cdiscs:dataElementType <http://rdf.cdisc.org/std/schema#Classifier.Character> ;
.
<http://rdf.cdisc.org/std/adamig-1-0#Column.ADAE.AERELN>
  rdf:type mms:Column ;
  mms:context <http://rdf.cdisc.org/std/adamig-1-0#ADAE.DescriptiveVariables> ;
  mms:dataElementDescription "Code AE.AEREL to numeric. Low relation should correspond to low value."^^xsd:string ;
  mms:dataElementLabel "Causality (N)"^^xsd:string ;
  mms:dataElementName "AERELN"^^xsd:string ;
  mms:dataElementType "xsd:integer"^^xsd:anySimpleType ;
  mms:ordinal "63"^^xsd:positiveInteger ;
  cdiscs:controlledTermsOrFormat "*"^^xsd:string ;
  cdiscs:dataElementCompliance <http://rdf.cdisc.org/std/adamig-1-0#Classifier.PermissibleVariable> ;
  cdiscs:dataElementType <http://rdf.cdisc.org/std/schema#Classifier.Numeric> ;
.
<http://rdf.cdisc.org/std/adamig-1-0#Column.ADAE.AESEQ>
  rdf:type mms:Column ;
  mms:context <http://rdf.cdisc.org/std/adamig-1-0#ADAE.IdentifierVariables> ;
  mms:dataElementDescription "AE.AESEQ Required for traceability back to SDTM AE."^^xsd:string ;
  mms:dataElementLabel "Sequence Number"^^xsd:string ;
  mms:dataElementName "AESEQ"^^xsd:string ;
  mms:dataElementType "xsd:decimal"^^xsd:anySimpleType ;
  mms:ordinal "5"^^xsd:positiveInteger ;
  cdiscs:dataElementCompliance <http://rdf.cdisc.org/std/adamig-1-0#Classifier.RequiredVariable> ;
  cdiscs:dataElementType <http://rdf.cdisc.org/std/schema#Classifier.Numeric> ;
.
<http://rdf.cdisc.org/std/adamig-1-0#Column.ADAE.AESER>
  rdf:type mms:Column ;
  mms:context <http://rdf.cdisc.org/std/adamig-1-0#ADAE.DescriptiveVariables> ;
  mms:dataElementDescription "AE.AESER."^^xsd:string ;
  mms:dataElementLabel "Serious Event"^^xsd:string ;
  mms:dataElementName "AESER"^^xsd:string ;
  mms:dataElementType "xsd:string"^^xsd:anySimpleType ;
  mms:ordinal "55"^^xsd:positiveInteger ;
  cdiscs:controlledTermsOrFormat "(NY)"^^xsd:string ;
  cdiscs:dataElementCompliance <http://rdf.cdisc.org/std/adamig-1-0#Classifier.RequiredVariable> ;
  cdiscs:dataElementType <http://rdf.cdisc.org/std/schema#Classifier.Character> ;
.
<http://rdf.cdisc.org/std/adamig-1-0#Column.ADAE.AESEV>
  rdf:type mms:Column ;
  mms:context <http://rdf.cdisc.org/std/adamig-1-0#ADAE.DescriptiveVariables> ;
  mms:dataElementDescription "AE.AESEV."^^xsd:string ;
  mms:dataElementLabel "Severity/Intensity"^^xsd:string ;
  mms:dataElementName "AESEV"^^xsd:string ;
  mms:dataElementType "xsd:string"^^xsd:anySimpleType ;
  mms:dataElementValueDomain sdtmct:C66769 ;
  mms:ordinal "56"^^xsd:positiveInteger ;
  cdiscs:controlledTermsOrFormat "(AESEV)"^^xsd:string ;
  cdiscs:dataElementCompliance <http://rdf.cdisc.org/std/adamig-1-0#Classifier.PermissibleVariable> ;
  cdiscs:dataElementType <http://rdf.cdisc.org/std/schema#Classifier.Character> ;
.
<http://rdf.cdisc.org/std/adamig-1-0#Column.ADAE.AESEVN>
  rdf:type mms:Column ;
  mms:context <http://rdf.cdisc.org/std/adamig-1-0#ADAE.DescriptiveVariables> ;
  mms:dataElementDescription "Code AE.AESEV to numeric. Low intensity should correspond to low value."^^xsd:string ;
  mms:dataElementLabel "Severity/Intensity (N)"^^xsd:string ;
  mms:dataElementName "AESEVN"^^xsd:string ;
  mms:dataElementType "xsd:integer"^^xsd:anySimpleType ;
  mms:ordinal "57"^^xsd:positiveInteger ;
  cdiscs:controlledTermsOrFormat "1, 2, 3"^^xsd:string ;
  cdiscs:dataElementCompliance <http://rdf.cdisc.org/std/adamig-1-0#Classifier.PermissibleVariable> ;
  cdiscs:dataElementType <http://rdf.cdisc.org/std/schema#Classifier.Numeric> ;
.
<http://rdf.cdisc.org/std/adamig-1-0#Column.ADAE.AESOC>
  rdf:type mms:Column ;
  mms:context <http://rdf.cdisc.org/std/adamig-1-0#ADAE.DictionaryCodingVariables> ;
  mms:dataElementDescription "AE.AESOC This would be copied from the SDTM AE domain or supplemental qualifier dataset. Include the dictionary version in the variable metadata. Conditional on whether a secondary SOC was used for the primary analysis. See Amendment 1 to SDTM [3]."^^xsd:string ;
  mms:dataElementLabel "Primary System Organ Class"^^xsd:string ;
  mms:dataElementName "AESOC"^^xsd:string ;
  mms:dataElementType "xsd:string"^^xsd:anySimpleType ;
  mms:ordinal "17"^^xsd:positiveInteger ;
  cdiscs:controlledTermsOrFormat "MedDRA"^^xsd:string ;
  cdiscs:dataElementCompliance <http://rdf.cdisc.org/std/adamig-1-0#Classifier.ConditionalVariable> ;
  cdiscs:dataElementType <http://rdf.cdisc.org/std/schema#Classifier.Character> ;
.
<http://rdf.cdisc.org/std/adamig-1-0#Column.ADAE.AESOCCD>
  rdf:type mms:Column ;
  mms:context <http://rdf.cdisc.org/std/adamig-1-0#ADAE.DictionaryCodingVariables> ;
  mms:dataElementDescription "AE.AESOCCD This would be copied from the SDTM AE domain or supplemental qualifier dataset. Include the dictionary version in the variable metadata."^^xsd:string ;
  mms:dataElementLabel "Primary System Organ Class Code"^^xsd:string ;
  mms:dataElementName "AESOCCD"^^xsd:string ;
  mms:dataElementType "xsd:integer"^^xsd:anySimpleType ;
  mms:ordinal "18"^^xsd:positiveInteger ;
  cdiscs:controlledTermsOrFormat "MedDRA"^^xsd:string ;
  cdiscs:dataElementCompliance <http://rdf.cdisc.org/std/adamig-1-0#Classifier.PermissibleVariable> ;
  cdiscs:dataElementType <http://rdf.cdisc.org/std/schema#Classifier.Numeric> ;
.
<http://rdf.cdisc.org/std/adamig-1-0#Column.ADAE.AESTDTC>
  rdf:type mms:Column ;
  mms:context <http://rdf.cdisc.org/std/adamig-1-0#ADAE.TimingVariables> ;
  mms:dataElementDescription "Copied from AE.AESTDTC."^^xsd:string ;
  mms:dataElementLabel "Start Date/Time of Adverse Event"^^xsd:string ;
  mms:dataElementName "AESTDTC"^^xsd:string ;
  mms:dataElementType "xsd:dateTime"^^xsd:anySimpleType ;
  mms:ordinal "19"^^xsd:positiveInteger ;
  cdiscs:controlledTermsOrFormat "ISO 8601"^^xsd:string ;
  cdiscs:dataElementCompliance <http://rdf.cdisc.org/std/adamig-1-0#Classifier.PermissibleVariable> ;
  cdiscs:dataElementType <http://rdf.cdisc.org/std/schema#Classifier.Character> ;
.
<http://rdf.cdisc.org/std/adamig-1-0#Column.ADAE.AESTDY>
  rdf:type mms:Column ;
  mms:context <http://rdf.cdisc.org/std/adamig-1-0#ADAE.TimingVariables> ;
  mms:dataElementDescription "AE.AESTDY ASTDY may differ from AESTDY due to date imputation and the option in ADaM to use a reference date other than SDTM's RFSTDTC. Including AE.AESTDY in addition to ASTDY adds traceability."^^xsd:string ;
  mms:dataElementLabel "Study Day of Start of Adverse Event"^^xsd:string ;
  mms:dataElementName "AESTDY"^^xsd:string ;
  mms:dataElementType "xsd:integer"^^xsd:anySimpleType ;
  mms:ordinal "30"^^xsd:positiveInteger ;
  cdiscs:dataElementCompliance <http://rdf.cdisc.org/std/adamig-1-0#Classifier.PermissibleVariable> ;
  cdiscs:dataElementType <http://rdf.cdisc.org/std/schema#Classifier.Numeric> ;
.
<http://rdf.cdisc.org/std/adamig-1-0#Column.ADAE.AETERM>
  rdf:type mms:Column ;
  mms:context <http://rdf.cdisc.org/std/adamig-1-0#ADAE.DictionaryCodingVariables> ;
  mms:dataElementDescription "AE.AETERM"^^xsd:string ;
  mms:dataElementLabel "Reported Term for the Adverse Event"^^xsd:string ;
  mms:dataElementName "AETERM"^^xsd:string ;
  mms:dataElementType "xsd:string"^^xsd:anySimpleType ;
  mms:ordinal "6"^^xsd:positiveInteger ;
  cdiscs:dataElementCompliance <http://rdf.cdisc.org/std/adamig-1-0#Classifier.RequiredVariable> ;
  cdiscs:dataElementType <http://rdf.cdisc.org/std/schema#Classifier.Character> ;
.
<http://rdf.cdisc.org/std/adamig-1-0#Column.ADAE.AETOXGR>
  rdf:type mms:Column ;
  mms:context <http://rdf.cdisc.org/std/adamig-1-0#ADAE.DescriptiveVariables> ;
  mms:dataElementDescription "AE.AETOXGR"^^xsd:string ;
  mms:dataElementLabel "Standard Toxicity Grade"^^xsd:string ;
  mms:dataElementName "AETOXGR"^^xsd:string ;
  mms:dataElementType "xsd:string"^^xsd:anySimpleType ;
  mms:ordinal "68"^^xsd:positiveInteger ;
  cdiscs:controlledTermsOrFormat "*"^^xsd:string ;
  cdiscs:dataElementCompliance <http://rdf.cdisc.org/std/adamig-1-0#Classifier.PermissibleVariable> ;
  cdiscs:dataElementType <http://rdf.cdisc.org/std/schema#Classifier.Character> ;
.
<http://rdf.cdisc.org/std/adamig-1-0#Column.ADAE.AETOXGRN>
  rdf:type mms:Column ;
  mms:context <http://rdf.cdisc.org/std/adamig-1-0#ADAE.DescriptiveVariables> ;
  mms:dataElementDescription "Code AETOXGR to numeric. Low toxicity should correspond to low value."^^xsd:string ;
  mms:dataElementLabel "Standard Toxicity Grade (N)"^^xsd:string ;
  mms:dataElementName "AETOXGRN"^^xsd:string ;
  mms:dataElementType "xsd:integer"^^xsd:anySimpleType ;
  mms:ordinal "69"^^xsd:positiveInteger ;
  cdiscs:controlledTermsOrFormat "*"^^xsd:string ;
  cdiscs:dataElementCompliance <http://rdf.cdisc.org/std/adamig-1-0#Classifier.PermissibleVariable> ;
  cdiscs:dataElementType <http://rdf.cdisc.org/std/schema#Classifier.Numeric> ;
.
<http://rdf.cdisc.org/std/adamig-1-0#Column.ADAE.AETRTEM>
  rdf:type mms:Column ;
  mms:context <http://rdf.cdisc.org/std/adamig-1-0#ADAE.IndicatorVariables> ;
  mms:dataElementDescription "SUPPAE.QVAL where QNAM='AETRTEM'. See the SDTMIG version 3.1.2 [3] for more information. TRTEMFL may differ from AETRTEM due to different definitions, date imputation, and other analysis rules. Including AETRTEM in addition to TRTEMFL will add traceability."^^xsd:string ;
  mms:dataElementLabel "Treatment Emergent Flag"^^xsd:string ;
  mms:dataElementName "AETRTEM"^^xsd:string ;
  mms:dataElementType "xsd:string"^^xsd:anySimpleType ;
  mms:ordinal "40"^^xsd:positiveInteger ;
  cdiscs:controlledTermsOrFormat "(NY)"^^xsd:string ;
  cdiscs:dataElementCompliance <http://rdf.cdisc.org/std/adamig-1-0#Classifier.PermissibleVariable> ;
  cdiscs:dataElementType <http://rdf.cdisc.org/std/schema#Classifier.Character> ;
.
<http://rdf.cdisc.org/std/adamig-1-0#Column.ADAE.ANLzzFL>
  rdf:type mms:Column ;
  mms:context <http://rdf.cdisc.org/std/adamig-1-0#ADAE.IndicatorVariables> ;
  mms:dataElementDescription "The ANLzzFL flag is useful in many circumstances; an example is when there is more than one coding path included for analysis, in which case separate analysis flags could be used to denote primary coding path or the records used for analysis from each coding path. See the ADaMIG version 1 [2] for more information on this flag variable. This variable is conditional on whether analysis records flags are needed for analysis."^^xsd:string ;
  mms:dataElementLabel "Analysis Record Flag zz"^^xsd:string ;
  mms:dataElementName "ANLzzFL"^^xsd:string ;
  mms:dataElementType "xsd:string"^^xsd:anySimpleType ;
  mms:ordinal "41"^^xsd:positiveInteger ;
  cdiscs:controlledTermsOrFormat "Y"^^xsd:string ;
  cdiscs:dataElementCompliance <http://rdf.cdisc.org/std/adamig-1-0#Classifier.ConditionalVariable> ;
  cdiscs:dataElementType <http://rdf.cdisc.org/std/schema#Classifier.Character> ;
.
<http://rdf.cdisc.org/std/adamig-1-0#Column.ADAE.AOCCFL>
  rdf:type mms:Column ;
  mms:context <http://rdf.cdisc.org/std/adamig-1-0#ADAE.OccurrenceVariables> ;
  mms:dataElementDescription "Example derivation: Sort the data in the required order and flag the first treatment emergent record for each subject."^^xsd:string ;
  mms:dataElementLabel "1st Occurrence of Any AE Flag"^^xsd:string ;
  mms:dataElementName "AOCCFL"^^xsd:string ;
  mms:dataElementType "xsd:string"^^xsd:anySimpleType ;
  mms:ordinal "44"^^xsd:positiveInteger ;
  cdiscs:controlledTermsOrFormat "Y"^^xsd:string ;
  cdiscs:dataElementCompliance <http://rdf.cdisc.org/std/adamig-1-0#Classifier.PermissibleVariable> ;
  cdiscs:dataElementType <http://rdf.cdisc.org/std/schema#Classifier.Character> ;
.
<http://rdf.cdisc.org/std/adamig-1-0#Column.ADAE.AOCCIFL>
  rdf:type mms:Column ;
  mms:context <http://rdf.cdisc.org/std/adamig-1-0#ADAE.OccurrenceVariables> ;
  mms:dataElementDescription "Example derivation: Sort the data in the required order and flag the first treatment emergent record for maximum severity for each subject."^^xsd:string ;
  mms:dataElementLabel "1st Max Sev./Int. Occurrence Flag"^^xsd:string ;
  mms:dataElementName "AOCCIFL"^^xsd:string ;
  mms:dataElementType "xsd:string"^^xsd:anySimpleType ;
  mms:ordinal "47"^^xsd:positiveInteger ;
  cdiscs:controlledTermsOrFormat "Y"^^xsd:string ;
  cdiscs:dataElementCompliance <http://rdf.cdisc.org/std/adamig-1-0#Classifier.PermissibleVariable> ;
  cdiscs:dataElementType <http://rdf.cdisc.org/std/schema#Classifier.Character> ;
.
<http://rdf.cdisc.org/std/adamig-1-0#Column.ADAE.AOCCPFL>
  rdf:type mms:Column ;
  mms:context <http://rdf.cdisc.org/std/adamig-1-0#ADAE.OccurrenceVariables> ;
  mms:dataElementDescription "Example derivation: Sort the data in the required order and flag the first treatment emergent record for each preferred term for each subject."^^xsd:string ;
  mms:dataElementLabel "1st Occurrence of Preferred Term Flag"^^xsd:string ;
  mms:dataElementName "AOCCPFL"^^xsd:string ;
  mms:dataElementType "xsd:string"^^xsd:anySimpleType ;
  mms:ordinal "46"^^xsd:positiveInteger ;
  cdiscs:controlledTermsOrFormat "Y"^^xsd:string ;
  cdiscs:dataElementCompliance <http://rdf.cdisc.org/std/adamig-1-0#Classifier.PermissibleVariable> ;
  cdiscs:dataElementType <http://rdf.cdisc.org/std/schema#Classifier.Character> ;
.
<http://rdf.cdisc.org/std/adamig-1-0#Column.ADAE.AOCCPIFL>
  rdf:type mms:Column ;
  mms:context <http://rdf.cdisc.org/std/adamig-1-0#ADAE.OccurrenceVariables> ;
  mms:dataElementDescription "Example derivation: Sort the data in the required order and flag the first treatment emergent record for maximum severity within preferred term for each subject."^^xsd:string ;
  mms:dataElementLabel "1st Max Sev./Int. Occur Within PT Flag"^^xsd:string ;
  mms:dataElementName "AOCCPIFL"^^xsd:string ;
  mms:dataElementType "xsd:string"^^xsd:anySimpleType ;
  mms:ordinal "49"^^xsd:positiveInteger ;
  cdiscs:controlledTermsOrFormat "Y"^^xsd:string ;
  cdiscs:dataElementCompliance <http://rdf.cdisc.org/std/adamig-1-0#Classifier.PermissibleVariable> ;
  cdiscs:dataElementType <http://rdf.cdisc.org/std/schema#Classifier.Character> ;
.
<http://rdf.cdisc.org/std/adamig-1-0#Column.ADAE.AOCCSFL>
  rdf:type mms:Column ;
  mms:context <http://rdf.cdisc.org/std/adamig-1-0#ADAE.OccurrenceVariables> ;
  mms:dataElementDescription "xample derivation: Sort the data in the required order and flag the first treatment emergent record for each body system for each subject."^^xsd:string ;
  mms:dataElementLabel "1st Occurrence of SOC Flag"^^xsd:string ;
  mms:dataElementName "AOCCSFL"^^xsd:string ;
  mms:dataElementType "xsd:string"^^xsd:anySimpleType ;
  mms:ordinal "45"^^xsd:positiveInteger ;
  cdiscs:controlledTermsOrFormat "Y"^^xsd:string ;
  cdiscs:dataElementCompliance <http://rdf.cdisc.org/std/adamig-1-0#Classifier.PermissibleVariable> ;
  cdiscs:dataElementType <http://rdf.cdisc.org/std/schema#Classifier.Character> ;
.
<http://rdf.cdisc.org/std/adamig-1-0#Column.ADAE.AOCCSIFL>
  rdf:type mms:Column ;
  mms:context <http://rdf.cdisc.org/std/adamig-1-0#ADAE.OccurrenceVariables> ;
  mms:dataElementDescription "Example derivation: Sort the data in the required order and flag the first treatment emergent record for maximum severity within body system for each subject."^^xsd:string ;
  mms:dataElementLabel "1st Max Sev./Int. Occur Within SOC Flag"^^xsd:string ;
  mms:dataElementName "AOCCSIFL"^^xsd:string ;
  mms:dataElementType "xsd:string"^^xsd:anySimpleType ;
  mms:ordinal "48"^^xsd:positiveInteger ;
  cdiscs:controlledTermsOrFormat "Y"^^xsd:string ;
  cdiscs:dataElementCompliance <http://rdf.cdisc.org/std/adamig-1-0#Classifier.PermissibleVariable> ;
  cdiscs:dataElementType <http://rdf.cdisc.org/std/schema#Classifier.Character> ;
.
<http://rdf.cdisc.org/std/adamig-1-0#Column.ADAE.AOCCzzFL>
  rdf:type mms:Column ;
  mms:context <http://rdf.cdisc.org/std/adamig-1-0#ADAE.OccurrenceVariables> ;
  mms:dataElementDescription "Additional flag variables as needed for analysis. Derivation rules for these flags need to be described in the metadata."^^xsd:string ;
  mms:dataElementLabel "1st Occurrence of ..."^^xsd:string ;
  mms:dataElementName "AOCCzzFL"^^xsd:string ;
  mms:dataElementType "xsd:string"^^xsd:anySimpleType ;
  mms:ordinal "50"^^xsd:positiveInteger ;
  cdiscs:controlledTermsOrFormat "Y"^^xsd:string ;
  cdiscs:dataElementCompliance <http://rdf.cdisc.org/std/adamig-1-0#Classifier.PermissibleVariable> ;
  cdiscs:dataElementType <http://rdf.cdisc.org/std/schema#Classifier.Character> ;
.
<http://rdf.cdisc.org/std/adamig-1-0#Column.ADAE.APERIOD>
  rdf:type mms:Column ;
  mms:context <http://rdf.cdisc.org/std/adamig-1-0#ADAE.TimingVariables> ;
  mms:dataElementDescription "The numeric value characterizing the period to which the record belongs."^^xsd:string ;
  mms:dataElementLabel "Period"^^xsd:string ;
  mms:dataElementName "APERIOD"^^xsd:string ;
  mms:dataElementType "xsd:integer"^^xsd:anySimpleType ;
  mms:ordinal "36"^^xsd:positiveInteger ;
  cdiscs:dataElementCompliance <http://rdf.cdisc.org/std/adamig-1-0#Classifier.PermissibleVariable> ;
  cdiscs:dataElementType <http://rdf.cdisc.org/std/schema#Classifier.Numeric> ;
.
<http://rdf.cdisc.org/std/adamig-1-0#Column.ADAE.APERIODC>
  rdf:type mms:Column ;
  mms:context <http://rdf.cdisc.org/std/adamig-1-0#ADAE.TimingVariables> ;
  mms:dataElementDescription "Text characterizing to which period the record belongs. One-to-one map to APERIOD."^^xsd:string ;
  mms:dataElementLabel "Period (C)"^^xsd:string ;
  mms:dataElementName "APERIODC"^^xsd:string ;
  mms:dataElementType "xsd:string"^^xsd:anySimpleType ;
  mms:ordinal "37"^^xsd:positiveInteger ;
  cdiscs:dataElementCompliance <http://rdf.cdisc.org/std/adamig-1-0#Classifier.PermissibleVariable> ;
  cdiscs:dataElementType <http://rdf.cdisc.org/std/schema#Classifier.Character> ;
.
<http://rdf.cdisc.org/std/adamig-1-0#Column.ADAE.APHASE>
  rdf:type mms:Column ;
  mms:context <http://rdf.cdisc.org/std/adamig-1-0#ADAE.TimingVariables> ;
  mms:dataElementDescription "Example derivation: If ASTDT<ADSL.TRTSDT, then APHASE='RUN-IN'. Else if ASTDT > ADSL.TRTEDT + x days then APHASE='FOLLOW-UP', Else APHASE='TREATMENT'. The number x is defined by the sponsor, should be consistent with the Treatment Emergent Analysis Flag (TRTEMFL) variable described below and often incorporates the known half-life of the drug."^^xsd:string ;
  mms:dataElementLabel "Phase"^^xsd:string ;
  mms:dataElementName "APHASE"^^xsd:string ;
  mms:dataElementType "xsd:string"^^xsd:anySimpleType ;
  mms:ordinal "38"^^xsd:positiveInteger ;
  cdiscs:dataElementCompliance <http://rdf.cdisc.org/std/adamig-1-0#Classifier.PermissibleVariable> ;
  cdiscs:dataElementType <http://rdf.cdisc.org/std/schema#Classifier.Character> ;
.
<http://rdf.cdisc.org/std/adamig-1-0#Column.ADAE.AREL>
  rdf:type mms:Column ;
  mms:context <http://rdf.cdisc.org/std/adamig-1-0#ADAE.DescriptiveVariables> ;
  mms:dataElementDescription "Apply imputation rules for missing causality of study drug as specified in the SAP or metadata. May change case of text, such as from all uppercase in AEREL to mixed case in AREL."^^xsd:string ;
  mms:dataElementLabel "Analysis Causality"^^xsd:string ;
  mms:dataElementName "AREL"^^xsd:string ;
  mms:dataElementType "xsd:string"^^xsd:anySimpleType ;
  mms:ordinal "64"^^xsd:positiveInteger ;
  cdiscs:controlledTermsOrFormat "*"^^xsd:string ;
  cdiscs:dataElementCompliance <http://rdf.cdisc.org/std/adamig-1-0#Classifier.PermissibleVariable> ;
  cdiscs:dataElementType <http://rdf.cdisc.org/std/schema#Classifier.Character> ;
.
<http://rdf.cdisc.org/std/adamig-1-0#Column.ADAE.ARELN>
  rdf:type mms:Column ;
  mms:context <http://rdf.cdisc.org/std/adamig-1-0#ADAE.DescriptiveVariables> ;
  mms:dataElementDescription "Code AREL to numeric."^^xsd:string ;
  mms:dataElementLabel "Analysis Causality (N)"^^xsd:string ;
  mms:dataElementName "ARELN"^^xsd:string ;
  mms:dataElementType "xsd:integer"^^xsd:anySimpleType ;
  mms:ordinal "65"^^xsd:positiveInteger ;
  cdiscs:controlledTermsOrFormat "*"^^xsd:string ;
  cdiscs:dataElementCompliance <http://rdf.cdisc.org/std/adamig-1-0#Classifier.PermissibleVariable> ;
  cdiscs:dataElementType <http://rdf.cdisc.org/std/schema#Classifier.Numeric> ;
.
<http://rdf.cdisc.org/std/adamig-1-0#Column.ADAE.ASEV>
  rdf:type mms:Column ;
  mms:context <http://rdf.cdisc.org/std/adamig-1-0#ADAE.DescriptiveVariables> ;
  mms:dataElementDescription "Apply imputation rules for missing severity of adverse events as specified in the SAP or metadata. May change case of text, such as from all uppercase in AESEV to mixed case in ASEV."^^xsd:string ;
  mms:dataElementLabel "Analysis Severity/Intensity"^^xsd:string ;
  mms:dataElementName "ASEV"^^xsd:string ;
  mms:dataElementType "xsd:string"^^xsd:anySimpleType ;
  mms:ordinal "58"^^xsd:positiveInteger ;
  cdiscs:controlledTermsOrFormat "*"^^xsd:string ;
  cdiscs:dataElementCompliance <http://rdf.cdisc.org/std/adamig-1-0#Classifier.PermissibleVariable> ;
  cdiscs:dataElementType <http://rdf.cdisc.org/std/schema#Classifier.Character> ;
.
<http://rdf.cdisc.org/std/adamig-1-0#Column.ADAE.ASEVN>
  rdf:type mms:Column ;
  mms:context <http://rdf.cdisc.org/std/adamig-1-0#ADAE.DescriptiveVariables> ;
  mms:dataElementDescription "Code ASEV to numeric. Low intensity should correspond to low value."^^xsd:string ;
  mms:dataElementLabel "Analysis Severity/Intensity (N)"^^xsd:string ;
  mms:dataElementName "ASEVN"^^xsd:string ;
  mms:dataElementType "xsd:integer"^^xsd:anySimpleType ;
  mms:ordinal "59"^^xsd:positiveInteger ;
  cdiscs:controlledTermsOrFormat "1, 2, 3"^^xsd:string ;
  cdiscs:dataElementCompliance <http://rdf.cdisc.org/std/adamig-1-0#Classifier.PermissibleVariable> ;
  cdiscs:dataElementType <http://rdf.cdisc.org/std/schema#Classifier.Numeric> ;
.
<http://rdf.cdisc.org/std/adamig-1-0#Column.ADAE.ASTDT>
  rdf:type mms:Column ;
  mms:context <http://rdf.cdisc.org/std/adamig-1-0#ADAE.TimingVariables> ;
  mms:dataElementDescription "Created from converting AE.AESTDTC from character ISO8601 format to numeric date format, applying imputation rules as specified in the SAP or metadata. Conditional on whether start date is pertinent for study and AE.AESTDTC is populated in SDTM."^^xsd:string ;
  mms:dataElementLabel "Analysis Start Date"^^xsd:string ;
  mms:dataElementName "ASTDT"^^xsd:string ;
  mms:dataElementType "xsd:integer"^^xsd:anySimpleType ;
  mms:ordinal "20"^^xsd:positiveInteger ;
  cdiscs:dataElementCompliance <http://rdf.cdisc.org/std/adamig-1-0#Classifier.ConditionalVariable> ;
  cdiscs:dataElementType <http://rdf.cdisc.org/std/schema#Classifier.Numeric> ;
.
<http://rdf.cdisc.org/std/adamig-1-0#Column.ADAE.ASTDTF>
  rdf:type mms:Column ;
  mms:context <http://rdf.cdisc.org/std/adamig-1-0#ADAE.TimingVariables> ;
  mms:dataElementDescription "Created during conversion of AE.AESTDTC from character to numeric. Imputation flags are described in the ADaMIG V1.0 [2] General Timing Variable Convention #6. Conditional on whether any imputation is done for the start date."^^xsd:string ;
  mms:dataElementLabel "Analysis Start Date Imputation Flag"^^xsd:string ;
  mms:dataElementName "ASTDTF"^^xsd:string ;
  mms:dataElementType "xsd:string"^^xsd:anySimpleType ;
  mms:dataElementValueDomain adamct:C81223 ;
  mms:ordinal "22"^^xsd:positiveInteger ;
  cdiscs:controlledTermsOrFormat "(DATEFL)"^^xsd:string ;
  cdiscs:dataElementCompliance <http://rdf.cdisc.org/std/adamig-1-0#Classifier.ConditionalVariable> ;
  cdiscs:dataElementType <http://rdf.cdisc.org/std/schema#Classifier.Character> ;
.
<http://rdf.cdisc.org/std/adamig-1-0#Column.ADAE.ASTDTM>
  rdf:type mms:Column ;
  mms:context <http://rdf.cdisc.org/std/adamig-1-0#ADAE.TimingVariables> ;
  mms:dataElementDescription "Created from converting AE.AESTDTC from character ISO8601 format to numeric date-time format, applying imputation rules as specified in the SAP or metadata. Conditional on whether start date-time is pertinent for study and AE.AESTDTC with time is populated in SDTM."^^xsd:string ;
  mms:dataElementLabel "Analysis Start Date/Time"^^xsd:string ;
  mms:dataElementName "ASTDTM"^^xsd:string ;
  mms:dataElementType "xsd:integer"^^xsd:anySimpleType ;
  mms:ordinal "21"^^xsd:positiveInteger ;
  cdiscs:dataElementCompliance <http://rdf.cdisc.org/std/adamig-1-0#Classifier.ConditionalVariable> ;
  cdiscs:dataElementType <http://rdf.cdisc.org/std/schema#Classifier.Numeric> ;
.
<http://rdf.cdisc.org/std/adamig-1-0#Column.ADAE.ASTDY>
  rdf:type mms:Column ;
  mms:context <http://rdf.cdisc.org/std/adamig-1-0#ADAE.TimingVariables> ;
  mms:dataElementDescription "Example derivation: ASTDT - ADSL.TRTSDT + 1 if ASTDT >= TRTSDT, else ASTDT - ADSL.TRTSDT if ASTDT < TRTSDT. This variable may instead be copied from AESTDY. Conditional on whether analysis start relative day is pertinent to the study."^^xsd:string ;
  mms:dataElementLabel "Analysis Start Relative Day"^^xsd:string ;
  mms:dataElementName "ASTDY"^^xsd:string ;
  mms:dataElementType "xsd:integer"^^xsd:anySimpleType ;
  mms:ordinal "29"^^xsd:positiveInteger ;
  cdiscs:dataElementCompliance <http://rdf.cdisc.org/std/adamig-1-0#Classifier.ConditionalVariable> ;
  cdiscs:dataElementType <http://rdf.cdisc.org/std/schema#Classifier.Numeric> ;
.
<http://rdf.cdisc.org/std/adamig-1-0#Column.ADAE.ASTTMF>
  rdf:type mms:Column ;
  mms:context <http://rdf.cdisc.org/std/adamig-1-0#ADAE.TimingVariables> ;
  mms:dataElementDescription "Created during conversion of AE.AESTDTC from character to numeric. Imputation flags are described in the ADaMIG V1.0 [2] General Timing Variable Convention #6. Conditional on whether any imputation is done for the start time."^^xsd:string ;
  mms:dataElementLabel "Analysis Start Time Imputation Flag"^^xsd:string ;
  mms:dataElementName "ASTTMF"^^xsd:string ;
  mms:dataElementType "xsd:string"^^xsd:anySimpleType ;
  mms:dataElementValueDomain adamct:C81226 ;
  mms:ordinal "23"^^xsd:positiveInteger ;
  cdiscs:controlledTermsOrFormat "(TIMEFL)"^^xsd:string ;
  cdiscs:dataElementCompliance <http://rdf.cdisc.org/std/adamig-1-0#Classifier.ConditionalVariable> ;
  cdiscs:dataElementType <http://rdf.cdisc.org/std/schema#Classifier.Character> ;
.
<http://rdf.cdisc.org/std/adamig-1-0#Column.ADAE.ATOXGR>
  rdf:type mms:Column ;
  mms:context <http://rdf.cdisc.org/std/adamig-1-0#ADAE.DescriptiveVariables> ;
  mms:dataElementDescription "Toxicity grade for analysis. May be based on AETOXGR or an imputed or assigned value. May change case of text, such as from all uppercase in AETOXGR to mixed case in ATOXGR."^^xsd:string ;
  mms:dataElementLabel "Analysis Toxicity Grade"^^xsd:string ;
  mms:dataElementName "ATOXGR"^^xsd:string ;
  mms:dataElementType "xsd:string"^^xsd:anySimpleType ;
  mms:ordinal "70"^^xsd:positiveInteger ;
  cdiscs:controlledTermsOrFormat "*"^^xsd:string ;
  cdiscs:dataElementCompliance <http://rdf.cdisc.org/std/adamig-1-0#Classifier.PermissibleVariable> ;
  cdiscs:dataElementType <http://rdf.cdisc.org/std/schema#Classifier.Character> ;
.
<http://rdf.cdisc.org/std/adamig-1-0#Column.ADAE.ATOXGRN>
  rdf:type mms:Column ;
  mms:context <http://rdf.cdisc.org/std/adamig-1-0#ADAE.DescriptiveVariables> ;
  mms:dataElementDescription "Code ATOXGR to numeric. Low toxicity should correspond to low value."^^xsd:string ;
  mms:dataElementLabel "Analysis Toxicity Grade (N)"^^xsd:string ;
  mms:dataElementName "ATOXGRN"^^xsd:string ;
  mms:dataElementType "xsd:integer"^^xsd:anySimpleType ;
  mms:ordinal "71"^^xsd:positiveInteger ;
  cdiscs:controlledTermsOrFormat "*"^^xsd:string ;
  cdiscs:dataElementCompliance <http://rdf.cdisc.org/std/adamig-1-0#Classifier.PermissibleVariable> ;
  cdiscs:dataElementType <http://rdf.cdisc.org/std/schema#Classifier.Numeric> ;
.
<http://rdf.cdisc.org/std/adamig-1-0#Column.ADAE.BDSYORGy>
  rdf:type mms:Column ;
  mms:context <http://rdf.cdisc.org/std/adamig-1-0#ADAE.OriginalorPriorCodingVariables> ;
  mms:dataElementDescription "Original body system coding of AE.AETERM using MedDRA or other dictionary version X.X."^^xsd:string ;
  mms:dataElementLabel "SOC in Original Dictionary y"^^xsd:string ;
  mms:dataElementName "BDSYORGy"^^xsd:string ;
  mms:dataElementType "xsd:string"^^xsd:anySimpleType ;
  mms:ordinal "81"^^xsd:positiveInteger ;
  cdiscs:controlledTermsOrFormat "MedDRA"^^xsd:string ;
  cdiscs:dataElementCompliance <http://rdf.cdisc.org/std/adamig-1-0#Classifier.PermissibleVariable> ;
  cdiscs:dataElementType <http://rdf.cdisc.org/std/schema#Classifier.Character> ;
.
<http://rdf.cdisc.org/std/adamig-1-0#Column.ADAE.CQzzNAM>
  rdf:type mms:Column ;
  mms:context <http://rdf.cdisc.org/std/adamig-1-0#ADAE.MedDRAVariables> ;
  mms:dataElementDescription "The customized query (CQ) name or name of the AE of special interest category based on a grouping of MedDRA terms. Would be blank for terms that are not in the CQ. Conditional on whether CQ analysis is done. Examples: \"DERMATOLOGICAL EVENTS\", \"CARDIAC EVENTS\", \"IARS (INFUSION ASSOCIATED REACTIONS)\"."^^xsd:string ;
  mms:dataElementLabel "Customized Query zz Name"^^xsd:string ;
  mms:dataElementName "CQzzNAM"^^xsd:string ;
  mms:dataElementType "xsd:string"^^xsd:anySimpleType ;
  mms:ordinal "79"^^xsd:positiveInteger ;
  cdiscs:dataElementCompliance <http://rdf.cdisc.org/std/adamig-1-0#Classifier.ConditionalVariable> ;
  cdiscs:dataElementType <http://rdf.cdisc.org/std/schema#Classifier.Character> ;
.
<http://rdf.cdisc.org/std/adamig-1-0#Column.ADAE.DECDORGy>
  rdf:type mms:Column ;
  mms:context <http://rdf.cdisc.org/std/adamig-1-0#ADAE.OriginalorPriorCodingVariables> ;
  mms:dataElementDescription "Original preferred term coding of AE.AETERM using MedDRA or other dictionary version X.X."^^xsd:string ;
  mms:dataElementLabel "PT in Original Dictionary y"^^xsd:string ;
  mms:dataElementName "DECDORGy"^^xsd:string ;
  mms:dataElementType "xsd:string"^^xsd:anySimpleType ;
  mms:ordinal "80"^^xsd:positiveInteger ;
  cdiscs:controlledTermsOrFormat "MedDRA"^^xsd:string ;
  cdiscs:dataElementCompliance <http://rdf.cdisc.org/std/adamig-1-0#Classifier.PermissibleVariable> ;
  cdiscs:dataElementType <http://rdf.cdisc.org/std/schema#Classifier.Character> ;
.
<http://rdf.cdisc.org/std/adamig-1-0#Column.ADAE.DOSAEONU>
  rdf:type mms:Column ;
  mms:context <http://rdf.cdisc.org/std/adamig-1-0#ADAE.TreatmentVariables> ;
  mms:dataElementDescription "Conditional on whether DOSEAEON is included."^^xsd:string ;
  mms:dataElementLabel "Study Drug Dose at AE Onset Units"^^xsd:string ;
  mms:dataElementName "DOSAEONU"^^xsd:string ;
  mms:dataElementType "xsd:string"^^xsd:anySimpleType ;
  mms:ordinal "52"^^xsd:positiveInteger ;
  cdiscs:dataElementCompliance <http://rdf.cdisc.org/std/adamig-1-0#Classifier.ConditionalVariable> ;
  cdiscs:dataElementType <http://rdf.cdisc.org/std/schema#Classifier.Character> ;
.
<http://rdf.cdisc.org/std/adamig-1-0#Column.ADAE.DOSEAEON>
  rdf:type mms:Column ;
  mms:context <http://rdf.cdisc.org/std/adamig-1-0#ADAE.TreatmentVariables> ;
  mms:dataElementDescription "Study drug dose a subject took when adverse event occurred. Example derivation: Obtained from EX.EXDOSE where AESTDTC falls between the values of EX.EXSTDTC and EX.EXENDTC."^^xsd:string ;
  mms:dataElementLabel "Study Drug Dose at AE Onset"^^xsd:string ;
  mms:dataElementName "DOSEAEON"^^xsd:string ;
  mms:dataElementType "xsd:decimal"^^xsd:anySimpleType ;
  mms:ordinal "51"^^xsd:positiveInteger ;
  cdiscs:dataElementCompliance <http://rdf.cdisc.org/std/adamig-1-0#Classifier.PermissibleVariable> ;
  cdiscs:dataElementType <http://rdf.cdisc.org/std/schema#Classifier.Numeric> ;
.
<http://rdf.cdisc.org/std/adamig-1-0#Column.ADAE.DOSECUM>
  rdf:type mms:Column ;
  mms:context <http://rdf.cdisc.org/std/adamig-1-0#ADAE.TreatmentVariables> ;
  mms:dataElementDescription "Cumulative study drug dose at the start of the AE."^^xsd:string ;
  mms:dataElementLabel "Cumulative Study Drug Dose"^^xsd:string ;
  mms:dataElementName "DOSECUM"^^xsd:string ;
  mms:dataElementType "xsd:decimal"^^xsd:anySimpleType ;
  mms:ordinal "53"^^xsd:positiveInteger ;
  cdiscs:dataElementCompliance <http://rdf.cdisc.org/std/adamig-1-0#Classifier.PermissibleVariable> ;
  cdiscs:dataElementType <http://rdf.cdisc.org/std/schema#Classifier.Numeric> ;
.
<http://rdf.cdisc.org/std/adamig-1-0#Column.ADAE.DOSECUMU>
  rdf:type mms:Column ;
  mms:context <http://rdf.cdisc.org/std/adamig-1-0#ADAE.TreatmentVariables> ;
  mms:dataElementDescription "Conditional on whether DOSECUM is included."^^xsd:string ;
  mms:dataElementLabel "Cumulative Study Drug Dose Units"^^xsd:string ;
  mms:dataElementName "DOSECUMU"^^xsd:string ;
  mms:dataElementType "xsd:string"^^xsd:anySimpleType ;
  mms:ordinal "54"^^xsd:positiveInteger ;
  cdiscs:dataElementCompliance <http://rdf.cdisc.org/std/adamig-1-0#Classifier.ConditionalVariable> ;
  cdiscs:dataElementType <http://rdf.cdisc.org/std/schema#Classifier.Character> ;
.
<http://rdf.cdisc.org/std/adamig-1-0#Column.ADAE.FUPFL>
  rdf:type mms:Column ;
  mms:context <http://rdf.cdisc.org/std/adamig-1-0#ADAE.IndicatorVariables> ;
  mms:dataElementDescription "Example derivation: If ASTDT > ADSL.TRTEDT then FUPFL='Y'. This variable is conditional on whether the concept of follow-up AEs is a feature of the study and whether used for analysis."^^xsd:string ;
  mms:dataElementLabel "Follow-up Flag"^^xsd:string ;
  mms:dataElementName "FUPFL"^^xsd:string ;
  mms:dataElementType "xsd:string"^^xsd:anySimpleType ;
  mms:ordinal "43"^^xsd:positiveInteger ;
  cdiscs:controlledTermsOrFormat "Y"^^xsd:string ;
  cdiscs:dataElementCompliance <http://rdf.cdisc.org/std/adamig-1-0#Classifier.ConditionalVariable> ;
  cdiscs:dataElementType <http://rdf.cdisc.org/std/schema#Classifier.Character> ;
.
<http://rdf.cdisc.org/std/adamig-1-0#Column.ADAE.HLGTORGy>
  rdf:type mms:Column ;
  mms:context <http://rdf.cdisc.org/std/adamig-1-0#ADAE.OriginalorPriorCodingVariables> ;
  mms:dataElementDescription "Original HLGT coding of AE.AETERM using MedDRA or other dictionary version X.X."^^xsd:string ;
  mms:dataElementLabel "HLGT in Original Dictionary y"^^xsd:string ;
  mms:dataElementName "HLGTORGy"^^xsd:string ;
  mms:dataElementType "xsd:string"^^xsd:anySimpleType ;
  mms:ordinal "82"^^xsd:positiveInteger ;
  cdiscs:controlledTermsOrFormat "MedDRA"^^xsd:string ;
  cdiscs:dataElementCompliance <http://rdf.cdisc.org/std/adamig-1-0#Classifier.PermissibleVariable> ;
  cdiscs:dataElementType <http://rdf.cdisc.org/std/schema#Classifier.Character> ;
.
<http://rdf.cdisc.org/std/adamig-1-0#Column.ADAE.HLTORGy>
  rdf:type mms:Column ;
  mms:context <http://rdf.cdisc.org/std/adamig-1-0#ADAE.OriginalorPriorCodingVariables> ;
  mms:dataElementDescription "Original HLT coding of AE.AETERM using MedDRA or other dictionary version X.X."^^xsd:string ;
  mms:dataElementLabel "HLT in Original Dictionary y"^^xsd:string ;
  mms:dataElementName "HLTORGy"^^xsd:string ;
  mms:dataElementType "xsd:string"^^xsd:anySimpleType ;
  mms:ordinal "83"^^xsd:positiveInteger ;
  cdiscs:controlledTermsOrFormat "MedDRA"^^xsd:string ;
  cdiscs:dataElementCompliance <http://rdf.cdisc.org/std/adamig-1-0#Classifier.PermissibleVariable> ;
  cdiscs:dataElementType <http://rdf.cdisc.org/std/schema#Classifier.Character> ;
.
<http://rdf.cdisc.org/std/adamig-1-0#Column.ADAE.LLTNORGy>
  rdf:type mms:Column ;
  mms:context <http://rdf.cdisc.org/std/adamig-1-0#ADAE.OriginalorPriorCodingVariables> ;
  mms:dataElementDescription "Original LLT code of AE.AETERM using MedDRA or other dictionary version X.X."^^xsd:string ;
  mms:dataElementLabel "LLT Code in Original Dictionary y"^^xsd:string ;
  mms:dataElementName "LLTNORGy"^^xsd:string ;
  mms:dataElementType "xsd:string"^^xsd:anySimpleType ;
  mms:ordinal "85"^^xsd:positiveInteger ;
  cdiscs:controlledTermsOrFormat "MedDRA"^^xsd:string ;
  cdiscs:dataElementCompliance <http://rdf.cdisc.org/std/adamig-1-0#Classifier.PermissibleVariable> ;
  cdiscs:dataElementType <http://rdf.cdisc.org/std/schema#Classifier.Character> ;
.
<http://rdf.cdisc.org/std/adamig-1-0#Column.ADAE.LLTORGy>
  rdf:type mms:Column ;
  mms:context <http://rdf.cdisc.org/std/adamig-1-0#ADAE.OriginalorPriorCodingVariables> ;
  mms:dataElementDescription "Original LLT coding of AE.AETERM using MedDRA or other dictionary version X.X."^^xsd:string ;
  mms:dataElementLabel "LLT in Original Dictionary y"^^xsd:string ;
  mms:dataElementName "LLTORGy"^^xsd:string ;
  mms:dataElementType "xsd:string"^^xsd:anySimpleType ;
  mms:ordinal "84"^^xsd:positiveInteger ;
  cdiscs:controlledTermsOrFormat "MedDRA"^^xsd:string ;
  cdiscs:dataElementCompliance <http://rdf.cdisc.org/std/adamig-1-0#Classifier.PermissibleVariable> ;
  cdiscs:dataElementType <http://rdf.cdisc.org/std/schema#Classifier.Character> ;
.
<http://rdf.cdisc.org/std/adamig-1-0#Column.ADAE.PREFL>
  rdf:type mms:Column ;
  mms:context <http://rdf.cdisc.org/std/adamig-1-0#ADAE.IndicatorVariables> ;
  mms:dataElementDescription "Example derivation: If ASTDT < ADSL.TRTSDT then PREFL='Y'. This variable is conditional on whether the concept of pre-treatment AEs is a feature of the study and whether used for analysis."^^xsd:string ;
  mms:dataElementLabel "Pre-treatment Flag"^^xsd:string ;
  mms:dataElementName "PREFL"^^xsd:string ;
  mms:dataElementType "xsd:string"^^xsd:anySimpleType ;
  mms:ordinal "42"^^xsd:positiveInteger ;
  cdiscs:controlledTermsOrFormat "Y"^^xsd:string ;
  cdiscs:dataElementCompliance <http://rdf.cdisc.org/std/adamig-1-0#Classifier.ConditionalVariable> ;
  cdiscs:dataElementType <http://rdf.cdisc.org/std/schema#Classifier.Character> ;
.
<http://rdf.cdisc.org/std/adamig-1-0#Column.ADAE.RELGRy>
  rdf:type mms:Column ;
  mms:context <http://rdf.cdisc.org/std/adamig-1-0#ADAE.DescriptiveVariables> ;
  mms:dataElementDescription "Pooled grouping of causality of study drug for analysis (e.g. related, Not related)."^^xsd:string ;
  mms:dataElementLabel "Pooled Causality Group y"^^xsd:string ;
  mms:dataElementName "RELGRy"^^xsd:string ;
  mms:dataElementType "xsd:string"^^xsd:anySimpleType ;
  mms:ordinal "66"^^xsd:positiveInteger ;
  cdiscs:controlledTermsOrFormat "*"^^xsd:string ;
  cdiscs:dataElementCompliance <http://rdf.cdisc.org/std/adamig-1-0#Classifier.PermissibleVariable> ;
  cdiscs:dataElementType <http://rdf.cdisc.org/std/schema#Classifier.Character> ;
.
<http://rdf.cdisc.org/std/adamig-1-0#Column.ADAE.RELGRyN>
  rdf:type mms:Column ;
  mms:context <http://rdf.cdisc.org/std/adamig-1-0#ADAE.DescriptiveVariables> ;
  mms:dataElementDescription "Code of RELGRy to numeric. Low intensity should correspond to low value."^^xsd:string ;
  mms:dataElementLabel "Pooled Causality Group y (N)"^^xsd:string ;
  mms:dataElementName "RELGRyN"^^xsd:string ;
  mms:dataElementType "xsd:integer"^^xsd:anySimpleType ;
  mms:ordinal "67"^^xsd:positiveInteger ;
  cdiscs:controlledTermsOrFormat "*"^^xsd:string ;
  cdiscs:dataElementCompliance <http://rdf.cdisc.org/std/adamig-1-0#Classifier.PermissibleVariable> ;
  cdiscs:dataElementType <http://rdf.cdisc.org/std/schema#Classifier.Numeric> ;
.
<http://rdf.cdisc.org/std/adamig-1-0#Column.ADAE.SEVGRy>
  rdf:type mms:Column ;
  mms:context <http://rdf.cdisc.org/std/adamig-1-0#ADAE.DescriptiveVariables> ;
  mms:dataElementDescription "Pooled grouping of AE Severity for analysis (e.g. mild/moderate or severe)."^^xsd:string ;
  mms:dataElementLabel "Pooled Severity Group y"^^xsd:string ;
  mms:dataElementName "SEVGRy"^^xsd:string ;
  mms:dataElementType "xsd:string"^^xsd:anySimpleType ;
  mms:ordinal "60"^^xsd:positiveInteger ;
  cdiscs:controlledTermsOrFormat "*"^^xsd:string ;
  cdiscs:dataElementCompliance <http://rdf.cdisc.org/std/adamig-1-0#Classifier.PermissibleVariable> ;
  cdiscs:dataElementType <http://rdf.cdisc.org/std/schema#Classifier.Character> ;
.
<http://rdf.cdisc.org/std/adamig-1-0#Column.ADAE.SEVGRyN>
  rdf:type mms:Column ;
  mms:context <http://rdf.cdisc.org/std/adamig-1-0#ADAE.DescriptiveVariables> ;
  mms:dataElementDescription "Code SEVGRy to numeric. Low intensity should correspond to low value."^^xsd:string ;
  mms:dataElementLabel "Pooled Severity Group y (N)"^^xsd:string ;
  mms:dataElementName "SEVGRyN"^^xsd:string ;
  mms:dataElementType "xsd:integer"^^xsd:anySimpleType ;
  mms:ordinal "61"^^xsd:positiveInteger ;
  cdiscs:controlledTermsOrFormat "*"^^xsd:string ;
  cdiscs:dataElementCompliance <http://rdf.cdisc.org/std/adamig-1-0#Classifier.PermissibleVariable> ;
  cdiscs:dataElementType <http://rdf.cdisc.org/std/schema#Classifier.Numeric> ;
.
<http://rdf.cdisc.org/std/adamig-1-0#Column.ADAE.SITEID>
  rdf:type mms:Column ;
  mms:context <http://rdf.cdisc.org/std/adamig-1-0#ADAE.IdentifierVariables> ;
  mms:dataElementDescription "ADSL.SITEID"^^xsd:string ;
  mms:dataElementLabel "Study Site Identifier"^^xsd:string ;
  mms:dataElementName "SITEID"^^xsd:string ;
  mms:dataElementType "xsd:string"^^xsd:anySimpleType ;
  mms:ordinal "4"^^xsd:positiveInteger ;
  cdiscs:dataElementCompliance <http://rdf.cdisc.org/std/adamig-1-0#Classifier.PermissibleVariable> ;
  cdiscs:dataElementType <http://rdf.cdisc.org/std/schema#Classifier.Character> ;
.
<http://rdf.cdisc.org/std/adamig-1-0#Column.ADAE.SMQzzCD>
  rdf:type mms:Column ;
  mms:context <http://rdf.cdisc.org/std/adamig-1-0#ADAE.MedDRAVariables> ;
  mms:dataElementDescription "The standardized MedDRA queries number code."^^xsd:string ;
  mms:dataElementLabel "SMQ zz Code"^^xsd:string ;
  mms:dataElementName "SMQzzCD"^^xsd:string ;
  mms:dataElementType "xsd:integer"^^xsd:anySimpleType ;
  mms:ordinal "76"^^xsd:positiveInteger ;
  cdiscs:dataElementCompliance <http://rdf.cdisc.org/std/adamig-1-0#Classifier.PermissibleVariable> ;
  cdiscs:dataElementType <http://rdf.cdisc.org/std/schema#Classifier.Numeric> ;
.
<http://rdf.cdisc.org/std/adamig-1-0#Column.ADAE.SMQzzNAM>
  rdf:type mms:Column ;
  mms:context <http://rdf.cdisc.org/std/adamig-1-0#ADAE.MedDRAVariables> ;
  mms:dataElementDescription "The standardized MedDRA query's name. Would be blank for terms that are not in the SMQ. Therefore this variable could be blank if none of the terms within the SMQ are present in the dataset. Conditional on whether SMQ analysis is done."^^xsd:string ;
  mms:dataElementLabel "SMQ zz Name"^^xsd:string ;
  mms:dataElementName "SMQzzNAM"^^xsd:string ;
  mms:dataElementType "xsd:string"^^xsd:anySimpleType ;
  mms:ordinal "75"^^xsd:positiveInteger ;
  cdiscs:dataElementCompliance <http://rdf.cdisc.org/std/adamig-1-0#Classifier.ConditionalVariable> ;
  cdiscs:dataElementType <http://rdf.cdisc.org/std/schema#Classifier.Character> ;
.
<http://rdf.cdisc.org/std/adamig-1-0#Column.ADAE.SMQzzSC>
  rdf:type mms:Column ;
  mms:context <http://rdf.cdisc.org/std/adamig-1-0#ADAE.MedDRAVariables> ;
  mms:dataElementDescription "The search strategy for SMQs can be narrow or broad. The preferred terms that are narrow in scope have high specificity for identifying events of interest while the broad terms have high sensitivity. By definition, all narrow terms are also considered within the broad score. Therefore, to summarize all broad terms, terms with either narrow OR broad would be considered. Will be null for terms that do not meet the criteria. Conditional on whether SMQ analysis is done."^^xsd:string ;
  mms:dataElementLabel "SMQ zz Scope"^^xsd:string ;
  mms:dataElementName "SMQzzSC"^^xsd:string ;
  mms:dataElementType "xsd:string"^^xsd:anySimpleType ;
  mms:ordinal "77"^^xsd:positiveInteger ;
  cdiscs:controlledTermsOrFormat "BROAD, NARROW"^^xsd:string ;
  cdiscs:dataElementCompliance <http://rdf.cdisc.org/std/adamig-1-0#Classifier.ConditionalVariable> ;
  cdiscs:dataElementType <http://rdf.cdisc.org/std/schema#Classifier.Character> ;
.
<http://rdf.cdisc.org/std/adamig-1-0#Column.ADAE.SMQzzSCN>
  rdf:type mms:Column ;
  mms:context <http://rdf.cdisc.org/std/adamig-1-0#ADAE.MedDRAVariables> ;
  mms:dataElementDescription "Will be null for terms that do not meet the criteria."^^xsd:string ;
  mms:dataElementLabel "SMQ zz Scope (N)"^^xsd:string ;
  mms:dataElementName "SMQzzSCN"^^xsd:string ;
  mms:dataElementType "xsd:integer"^^xsd:anySimpleType ;
  mms:ordinal "78"^^xsd:positiveInteger ;
  cdiscs:controlledTermsOrFormat "1, 2"^^xsd:string ;
  cdiscs:dataElementCompliance <http://rdf.cdisc.org/std/adamig-1-0#Classifier.PermissibleVariable> ;
  cdiscs:dataElementType <http://rdf.cdisc.org/std/schema#Classifier.Numeric> ;
.
<http://rdf.cdisc.org/std/adamig-1-0#Column.ADAE.STUDYID>
  rdf:type mms:Column ;
  mms:context <http://rdf.cdisc.org/std/adamig-1-0#ADAE.IdentifierVariables> ;
  mms:dataElementDescription "AE.STUDYID"^^xsd:string ;
  mms:dataElementLabel "Study Identifier"^^xsd:string ;
  mms:dataElementName "STUDYID"^^xsd:string ;
  mms:dataElementType "xsd:string"^^xsd:anySimpleType ;
  mms:ordinal "1"^^xsd:positiveInteger ;
  cdiscs:dataElementCompliance <http://rdf.cdisc.org/std/adamig-1-0#Classifier.RequiredVariable> ;
  cdiscs:dataElementType <http://rdf.cdisc.org/std/schema#Classifier.Character> ;
.
<http://rdf.cdisc.org/std/adamig-1-0#Column.ADAE.SUBJID>
  rdf:type mms:Column ;
  mms:context <http://rdf.cdisc.org/std/adamig-1-0#ADAE.IdentifierVariables> ;
  mms:dataElementDescription "ADSL.SUBJID"^^xsd:string ;
  mms:dataElementLabel "Subject Identifier for the Study"^^xsd:string ;
  mms:dataElementName "SUBJID"^^xsd:string ;
  mms:dataElementType "xsd:string"^^xsd:anySimpleType ;
  mms:ordinal "3"^^xsd:positiveInteger ;
  cdiscs:dataElementCompliance <http://rdf.cdisc.org/std/adamig-1-0#Classifier.PermissibleVariable> ;
  cdiscs:dataElementType <http://rdf.cdisc.org/std/schema#Classifier.Character> ;
.
<http://rdf.cdisc.org/std/adamig-1-0#Column.ADAE.TOXGGRy>
  rdf:type mms:Column ;
  mms:context <http://rdf.cdisc.org/std/adamig-1-0#ADAE.DescriptiveVariables> ;
  mms:dataElementDescription "Pooled grouping of toxicity grade for analysis."^^xsd:string ;
  mms:dataElementLabel "Pooled Toxicity Grade Group y"^^xsd:string ;
  mms:dataElementName "TOXGGRy"^^xsd:string ;
  mms:dataElementType "xsd:string"^^xsd:anySimpleType ;
  mms:ordinal "72"^^xsd:positiveInteger ;
  cdiscs:controlledTermsOrFormat "*"^^xsd:string ;
  cdiscs:dataElementCompliance <http://rdf.cdisc.org/std/adamig-1-0#Classifier.PermissibleVariable> ;
  cdiscs:dataElementType <http://rdf.cdisc.org/std/schema#Classifier.Character> ;
.
<http://rdf.cdisc.org/std/adamig-1-0#Column.ADAE.TOXGGRyN>
  rdf:type mms:Column ;
  mms:context <http://rdf.cdisc.org/std/adamig-1-0#ADAE.DescriptiveVariables> ;
  mms:dataElementDescription "Code of TOXGGRy to numeric. Low toxicity should correspond to low value."^^xsd:string ;
  mms:dataElementLabel "Pooled Toxicity Grade y (N)"^^xsd:string ;
  mms:dataElementName "TOXGGRyN"^^xsd:string ;
  mms:dataElementType "xsd:integer"^^xsd:anySimpleType ;
  mms:ordinal "73"^^xsd:positiveInteger ;
  cdiscs:controlledTermsOrFormat "*"^^xsd:string ;
  cdiscs:dataElementCompliance <http://rdf.cdisc.org/std/adamig-1-0#Classifier.PermissibleVariable> ;
  cdiscs:dataElementType <http://rdf.cdisc.org/std/schema#Classifier.Numeric> ;
.
<http://rdf.cdisc.org/std/adamig-1-0#Column.ADAE.TRTEMFL>
  rdf:type mms:Column ;
  mms:context <http://rdf.cdisc.org/std/adamig-1-0#ADAE.IndicatorVariables> ;
  mms:dataElementDescription "Example derivation: If ADSL.TRTSDT <= ASTDT <= ADSL.TRTEDT + x days then TRTEMFL='Y'. The number x is defined by the sponsor and often incorporates the known half-life of the drug. Variable TRTEMFL is to be used for any analysis of treatment-emergent AEs. This variable is conditional on whether the concept of treatment emergent is a key feature of the AE analyses."^^xsd:string ;
  mms:dataElementLabel "Treatment Emergent Analysis Flag"^^xsd:string ;
  mms:dataElementName "TRTEMFL"^^xsd:string ;
  mms:dataElementType "xsd:string"^^xsd:anySimpleType ;
  mms:ordinal "39"^^xsd:positiveInteger ;
  cdiscs:controlledTermsOrFormat "Y"^^xsd:string ;
  cdiscs:dataElementCompliance <http://rdf.cdisc.org/std/adamig-1-0#Classifier.ConditionalVariable> ;
  cdiscs:dataElementType <http://rdf.cdisc.org/std/schema#Classifier.Character> ;
.
<http://rdf.cdisc.org/std/adamig-1-0#Column.ADAE.USUBJID>
  rdf:type mms:Column ;
  mms:context <http://rdf.cdisc.org/std/adamig-1-0#ADAE.IdentifierVariables> ;
  mms:dataElementDescription "AE.USUBJID"^^xsd:string ;
  mms:dataElementLabel "Unique Subject Identifier"^^xsd:string ;
  mms:dataElementName "USUBJID"^^xsd:string ;
  mms:dataElementType "xsd:string"^^xsd:anySimpleType ;
  mms:ordinal "2"^^xsd:positiveInteger ;
  cdiscs:dataElementCompliance <http://rdf.cdisc.org/std/adamig-1-0#Classifier.RequiredVariable> ;
  cdiscs:dataElementType <http://rdf.cdisc.org/std/schema#Classifier.Character> ;
.
<http://rdf.cdisc.org/std/adamig-1-0#Column.ADSL.AGE>
  rdf:type mms:Column ;
  mms:context <http://rdf.cdisc.org/std/adamig-1-0#ADSL.SubjectDemographicVariables> ;
  mms:dataElementDescription "The age of the subject is a required variable in ADSL. If the variable is not a copy of DM.AGE, then an additional differently named variable must be added."^^xsd:string ;
  mms:dataElementLabel "Age"^^xsd:string ;
  mms:dataElementName "AGE"^^xsd:string ;
  mms:dataElementType "xsd:positiveInteger"^^xsd:anySimpleType ;
  mms:ordinal "7"^^xsd:positiveInteger ;
  cdiscs:dataElementCompliance <http://rdf.cdisc.org/std/adamig-1-0#Classifier.RequiredVariable> ;
  cdiscs:dataElementType <http://rdf.cdisc.org/std/schema#Classifier.Numeric> ;
.
<http://rdf.cdisc.org/std/adamig-1-0#Column.ADSL.AGEU>
  rdf:type mms:Column ;
  mms:context <http://rdf.cdisc.org/std/adamig-1-0#ADSL.SubjectDemographicVariables> ;
  mms:dataElementDescription "The units for the subject's age is a required variable in ADSL. If the variable is not a copy of DM.AGEU, then an additional differently named variable must be added."^^xsd:string ;
  mms:dataElementLabel "Age Units"^^xsd:string ;
  mms:dataElementName "AGEU"^^xsd:string ;
  mms:dataElementType "xsd:string"^^xsd:anySimpleType ;
  mms:dataElementValueDomain sdtmct:C66781 ;
  mms:ordinal "8"^^xsd:positiveInteger ;
  cdiscs:controlledTermsOrFormat "(AGEU)"^^xsd:string ;
  cdiscs:dataElementCompliance <http://rdf.cdisc.org/std/adamig-1-0#Classifier.RequiredVariable> ;
  cdiscs:dataElementType <http://rdf.cdisc.org/std/schema#Classifier.Character> ;
.
<http://rdf.cdisc.org/std/adamig-1-0#Column.ADSL.APxxEDT>
  rdf:type mms:Column ;
  mms:context <http://rdf.cdisc.org/std/adamig-1-0#ADSL.TrialDateVariables> ;
  mms:dataElementDescription "The ending date of period xx."^^xsd:string ;
  mms:dataElementLabel "Period xx End Date"^^xsd:string ;
  mms:dataElementName "APxxEDT"^^xsd:string ;
  mms:dataElementType "xsd:integer"^^xsd:anySimpleType ;
  mms:ordinal "59"^^xsd:positiveInteger ;
  cdiscs:dataElementCompliance <http://rdf.cdisc.org/std/adamig-1-0#Classifier.PermissibleVariable> ;
  cdiscs:dataElementType <http://rdf.cdisc.org/std/schema#Classifier.Numeric> ;
.
<http://rdf.cdisc.org/std/adamig-1-0#Column.ADSL.APxxEDTF>
  rdf:type mms:Column ;
  mms:context <http://rdf.cdisc.org/std/adamig-1-0#ADSL.TrialDateVariables> ;
  mms:dataElementDescription "The level of imputation of period xx end date. See General Timing Variable Convention #6."^^xsd:string ;
  mms:dataElementLabel "Period xx End Date Imput. Flag"^^xsd:string ;
  mms:dataElementName "APxxEDTF"^^xsd:string ;
  mms:dataElementType "xsd:string"^^xsd:anySimpleType ;
  mms:dataElementValueDomain adamct:C81223 ;
  mms:ordinal "62"^^xsd:positiveInteger ;
  cdiscs:controlledTermsOrFormat "(DATEFL)"^^xsd:string ;
  cdiscs:dataElementCompliance <http://rdf.cdisc.org/std/adamig-1-0#Classifier.ConditionalVariable> ;
  cdiscs:dataElementType <http://rdf.cdisc.org/std/schema#Classifier.Character> ;
.
<http://rdf.cdisc.org/std/adamig-1-0#Column.ADSL.APxxEDTM>
  rdf:type mms:Column ;
  mms:context <http://rdf.cdisc.org/std/adamig-1-0#ADSL.TrialDateVariables> ;
  mms:dataElementDescription "The ending datetime of period xx."^^xsd:string ;
  mms:dataElementLabel "Period xx End Date/Time"^^xsd:string ;
  mms:dataElementName "APxxEDTM"^^xsd:string ;
  mms:dataElementType "xsd:integer"^^xsd:anySimpleType ;
  mms:ordinal "61"^^xsd:positiveInteger ;
  cdiscs:dataElementCompliance <http://rdf.cdisc.org/std/adamig-1-0#Classifier.PermissibleVariable> ;
  cdiscs:dataElementType <http://rdf.cdisc.org/std/schema#Classifier.Numeric> ;
.
<http://rdf.cdisc.org/std/adamig-1-0#Column.ADSL.APxxETM>
  rdf:type mms:Column ;
  mms:context <http://rdf.cdisc.org/std/adamig-1-0#ADSL.TrialDateVariables> ;
  mms:dataElementDescription "The ending time of period xx."^^xsd:string ;
  mms:dataElementLabel "Period xx End Time"^^xsd:string ;
  mms:dataElementName "APxxETM"^^xsd:string ;
  mms:dataElementType "xsd:integer"^^xsd:anySimpleType ;
  mms:ordinal "60"^^xsd:positiveInteger ;
  cdiscs:dataElementCompliance <http://rdf.cdisc.org/std/adamig-1-0#Classifier.PermissibleVariable> ;
  cdiscs:dataElementType <http://rdf.cdisc.org/std/schema#Classifier.Numeric> ;
.
<http://rdf.cdisc.org/std/adamig-1-0#Column.ADSL.APxxETMF>
  rdf:type mms:Column ;
  mms:context <http://rdf.cdisc.org/std/adamig-1-0#ADSL.TrialDateVariables> ;
  mms:dataElementDescription "The level of imputation of period xx end time. See General Timing Variable Convention #7."^^xsd:string ;
  mms:dataElementLabel "Period End Time Imput. Flag"^^xsd:string ;
  mms:dataElementName "APxxETMF"^^xsd:string ;
  mms:dataElementType "xsd:string"^^xsd:anySimpleType ;
  mms:dataElementValueDomain adamct:C81226 ;
  mms:ordinal "63"^^xsd:positiveInteger ;
  cdiscs:controlledTermsOrFormat "(TIMEFL)"^^xsd:string ;
  cdiscs:dataElementCompliance <http://rdf.cdisc.org/std/adamig-1-0#Classifier.ConditionalVariable> ;
  cdiscs:dataElementType <http://rdf.cdisc.org/std/schema#Classifier.Character> ;
.
<http://rdf.cdisc.org/std/adamig-1-0#Column.ADSL.APxxSDT>
  rdf:type mms:Column ;
  mms:context <http://rdf.cdisc.org/std/adamig-1-0#ADSL.TrialDateVariables> ;
  mms:dataElementDescription "The starting date of period xx."^^xsd:string ;
  mms:dataElementLabel "Period xx Start Date"^^xsd:string ;
  mms:dataElementName "APxxSDT"^^xsd:string ;
  mms:dataElementType "xsd:integer"^^xsd:anySimpleType ;
  mms:ordinal "54"^^xsd:positiveInteger ;
  cdiscs:dataElementCompliance <http://rdf.cdisc.org/std/adamig-1-0#Classifier.PermissibleVariable> ;
  cdiscs:dataElementType <http://rdf.cdisc.org/std/schema#Classifier.Numeric> ;
.
<http://rdf.cdisc.org/std/adamig-1-0#Column.ADSL.APxxSDTF>
  rdf:type mms:Column ;
  mms:context <http://rdf.cdisc.org/std/adamig-1-0#ADSL.TrialDateVariables> ;
  mms:dataElementDescription "The level of imputation of period xx start date. See General Timing Variable Convention #6."^^xsd:string ;
  mms:dataElementLabel "Period xx Start Date Imput. Flag"^^xsd:string ;
  mms:dataElementName "APxxSDTF"^^xsd:string ;
  mms:dataElementType "xsd:string"^^xsd:anySimpleType ;
  mms:dataElementValueDomain adamct:C81223 ;
  mms:ordinal "57"^^xsd:positiveInteger ;
  cdiscs:controlledTermsOrFormat "(DATEFL)"^^xsd:string ;
  cdiscs:dataElementCompliance <http://rdf.cdisc.org/std/adamig-1-0#Classifier.ConditionalVariable> ;
  cdiscs:dataElementType <http://rdf.cdisc.org/std/schema#Classifier.Character> ;
.
<http://rdf.cdisc.org/std/adamig-1-0#Column.ADSL.APxxSDTM>
  rdf:type mms:Column ;
  mms:context <http://rdf.cdisc.org/std/adamig-1-0#ADSL.TrialDateVariables> ;
  mms:dataElementDescription "The starting datetime of period xx."^^xsd:string ;
  mms:dataElementLabel "Period xx Start Datetime"^^xsd:string ;
  mms:dataElementName "APxxSDTM"^^xsd:string ;
  mms:dataElementType "xsd:integer"^^xsd:anySimpleType ;
  mms:ordinal "56"^^xsd:positiveInteger ;
  cdiscs:dataElementCompliance <http://rdf.cdisc.org/std/adamig-1-0#Classifier.PermissibleVariable> ;
  cdiscs:dataElementType <http://rdf.cdisc.org/std/schema#Classifier.Numeric> ;
.
<http://rdf.cdisc.org/std/adamig-1-0#Column.ADSL.APxxSTM>
  rdf:type mms:Column ;
  mms:context <http://rdf.cdisc.org/std/adamig-1-0#ADSL.TrialDateVariables> ;
  mms:dataElementDescription "The starting time of period xx."^^xsd:string ;
  mms:dataElementLabel "Period xx Start Time"^^xsd:string ;
  mms:dataElementName "APxxSTM"^^xsd:string ;
  mms:dataElementType "xsd:integer"^^xsd:anySimpleType ;
  mms:ordinal "55"^^xsd:positiveInteger ;
  cdiscs:dataElementCompliance <http://rdf.cdisc.org/std/adamig-1-0#Classifier.PermissibleVariable> ;
  cdiscs:dataElementType <http://rdf.cdisc.org/std/schema#Classifier.Numeric> ;
.
<http://rdf.cdisc.org/std/adamig-1-0#Column.ADSL.APxxSTMF>
  rdf:type mms:Column ;
  mms:context <http://rdf.cdisc.org/std/adamig-1-0#ADSL.TrialDateVariables> ;
  mms:dataElementDescription "The level of imputation of period xx start time. See General Timing Variable Convention #7."^^xsd:string ;
  mms:dataElementLabel "Period xx Start Time Imput. Flag"^^xsd:string ;
  mms:dataElementName "APxxSTMF"^^xsd:string ;
  mms:dataElementType "xsd:string"^^xsd:anySimpleType ;
  mms:dataElementValueDomain adamct:C81226 ;
  mms:ordinal "58"^^xsd:positiveInteger ;
  cdiscs:controlledTermsOrFormat "(TIMEFL)"^^xsd:string ;
  cdiscs:dataElementCompliance <http://rdf.cdisc.org/std/adamig-1-0#Classifier.ConditionalVariable> ;
  cdiscs:dataElementType <http://rdf.cdisc.org/std/schema#Classifier.Character> ;
.
<http://rdf.cdisc.org/std/adamig-1-0#Column.ADSL.ARM>
  rdf:type mms:Column ;
  mms:context <http://rdf.cdisc.org/std/adamig-1-0#ADSL.TreatmentVariables> ;
  mms:dataElementDescription "DM.ARM"^^xsd:string ;
  mms:dataElementLabel "Description of Planned Arm"^^xsd:string ;
  mms:dataElementName "ARM"^^xsd:string ;
  mms:dataElementType "xsd:string"^^xsd:anySimpleType ;
  mms:ordinal "20"^^xsd:positiveInteger ;
  cdiscs:dataElementCompliance <http://rdf.cdisc.org/std/adamig-1-0#Classifier.RequiredVariable> ;
  cdiscs:dataElementType <http://rdf.cdisc.org/std/schema#Classifier.Character> ;
.
<http://rdf.cdisc.org/std/adamig-1-0#Column.ADSL.COMPLFL>
  rdf:type mms:Column ;
  mms:context <http://rdf.cdisc.org/std/adamig-1-0#ADSL.PopulationIndicatorVariables> ;
  mms:dataElementDescription "A character indicator variable is required for every population that is defined in the statistical analysis plan. A minimum of one subject-level population flag variable is required for every clinical trial. Additional population flags may be added. The values of subject-level population flags cannot be blank. If a flag is used, the corresponding numeric version (*FN) can also be included."^^xsd:string ;
  mms:dataElementLabel "Completers Population Flag"^^xsd:string ;
  mms:dataElementName "COMPLFL"^^xsd:string ;
  mms:dataElementType "xsd:string"^^xsd:anySimpleType ;
  mms:ordinal "17"^^xsd:positiveInteger ;
  cdiscs:controlledTermsOrFormat "Y, N"^^xsd:string ;
  cdiscs:dataElementCompliance <http://rdf.cdisc.org/std/adamig-1-0#Classifier.ConditionalVariable> ;
  cdiscs:dataElementType <http://rdf.cdisc.org/std/schema#Classifier.Character> ;
.
<http://rdf.cdisc.org/std/adamig-1-0#Column.ADSL.ENRLFL>
  rdf:type mms:Column ;
  mms:context <http://rdf.cdisc.org/std/adamig-1-0#ADSL.PopulationIndicatorVariables> ;
  mms:dataElementDescription "A character indicator variable is required for every population that is defined in the statistical analysis plan. A minimum of one subject-level population flag variable is required for every clinical trial. Additional population flags may be added. The values of subject-level population flags cannot be blank. If a flag is used, the corresponding numeric version (*FN) can also be included."^^xsd:string ;
  mms:dataElementLabel "Enrolled Population Flag"^^xsd:string ;
  mms:dataElementName "ENRLFL"^^xsd:string ;
  mms:dataElementType "xsd:string"^^xsd:anySimpleType ;
  mms:ordinal "19"^^xsd:positiveInteger ;
  cdiscs:controlledTermsOrFormat "Y, N"^^xsd:string ;
  cdiscs:dataElementCompliance <http://rdf.cdisc.org/std/adamig-1-0#Classifier.ConditionalVariable> ;
  cdiscs:dataElementType <http://rdf.cdisc.org/std/schema#Classifier.Character> ;
.
<http://rdf.cdisc.org/std/adamig-1-0#Column.ADSL.FASFL>
  rdf:type mms:Column ;
  mms:context <http://rdf.cdisc.org/std/adamig-1-0#ADSL.PopulationIndicatorVariables> ;
  mms:dataElementDescription "A character indicator variable is required for every population that is defined in the statistical analysis plan. A minimum of one subject-level population flag variable is required for every clinical trial. Additional population flags may be added. The values of subject-level population flags cannot be blank. If a flag is used, the corresponding numeric version (*FN) can also be included."^^xsd:string ;
  mms:dataElementLabel "Full Analysis Set Population Flag"^^xsd:string ;
  mms:dataElementName "FASFL"^^xsd:string ;
  mms:dataElementType "xsd:string"^^xsd:anySimpleType ;
  mms:ordinal "13"^^xsd:positiveInteger ;
  cdiscs:controlledTermsOrFormat "Y, N"^^xsd:string ;
  cdiscs:dataElementCompliance <http://rdf.cdisc.org/std/adamig-1-0#Classifier.ConditionalVariable> ;
  cdiscs:dataElementType <http://rdf.cdisc.org/std/schema#Classifier.Character> ;
.
<http://rdf.cdisc.org/std/adamig-1-0#Column.ADSL.ITTFL>
  rdf:type mms:Column ;
  mms:context <http://rdf.cdisc.org/std/adamig-1-0#ADSL.PopulationIndicatorVariables> ;
  mms:dataElementDescription "A character indicator variable is required for every population that is defined in the statistical analysis plan. A minimum of one subject-level population flag variable is required for every clinical trial. Additional population flags may be added. The values of subject-level population flags cannot be blank. If a flag is used, the corresponding numeric version (*FN) can also be included."^^xsd:string ;
  mms:dataElementLabel "Intent-To-Treat Population Flag"^^xsd:string ;
  mms:dataElementName "ITTFL"^^xsd:string ;
  mms:dataElementType "xsd:string"^^xsd:anySimpleType ;
  mms:ordinal "15"^^xsd:positiveInteger ;
  cdiscs:controlledTermsOrFormat "Y, N"^^xsd:string ;
  cdiscs:dataElementCompliance <http://rdf.cdisc.org/std/adamig-1-0#Classifier.ConditionalVariable> ;
  cdiscs:dataElementType <http://rdf.cdisc.org/std/schema#Classifier.Character> ;
.
<http://rdf.cdisc.org/std/adamig-1-0#Column.ADSL.PPROTFL>
  rdf:type mms:Column ;
  mms:context <http://rdf.cdisc.org/std/adamig-1-0#ADSL.PopulationIndicatorVariables> ;
  mms:dataElementDescription "A character indicator variable is required for every population that is defined in the statistical analysis plan. A minimum of one subject-level population flag variable is required for every clinical trial. Additional population flags may be added. The values of subject-level population flags cannot be blank. If a flag is used, the corresponding numeric version (*FN) can also be included."^^xsd:string ;
  mms:dataElementLabel "Per-Protocol Population Flag"^^xsd:string ;
  mms:dataElementName "PPROTFL"^^xsd:string ;
  mms:dataElementType "xsd:string"^^xsd:anySimpleType ;
  mms:ordinal "16"^^xsd:positiveInteger ;
  cdiscs:controlledTermsOrFormat "Y, N"^^xsd:string ;
  cdiscs:dataElementCompliance <http://rdf.cdisc.org/std/adamig-1-0#Classifier.ConditionalVariable> ;
  cdiscs:dataElementType <http://rdf.cdisc.org/std/schema#Classifier.Character> ;
.
<http://rdf.cdisc.org/std/adamig-1-0#Column.ADSL.RACE>
  rdf:type mms:Column ;
  mms:context <http://rdf.cdisc.org/std/adamig-1-0#ADSL.SubjectDemographicVariables> ;
  mms:dataElementDescription "The race of the subject is a required variable in ADSL. If the variable is not a copy of DM.RACE, then an additional differently named variable must be added."^^xsd:string ;
  mms:dataElementLabel "Race"^^xsd:string ;
  mms:dataElementName "RACE"^^xsd:string ;
  mms:dataElementType "xsd:string"^^xsd:anySimpleType ;
  mms:dataElementValueDomain sdtmct:C74457 ;
  mms:ordinal "10"^^xsd:positiveInteger ;
  cdiscs:controlledTermsOrFormat "(RACE)"^^xsd:string ;
  cdiscs:dataElementCompliance <http://rdf.cdisc.org/std/adamig-1-0#Classifier.RequiredVariable> ;
  cdiscs:dataElementType <http://rdf.cdisc.org/std/schema#Classifier.Character> ;
.
<http://rdf.cdisc.org/std/adamig-1-0#Column.ADSL.RACEGRy>
  rdf:type mms:Column ;
  mms:context <http://rdf.cdisc.org/std/adamig-1-0#ADSL.SubjectDemographicVariables> ;
  mms:dataElementDescription "Character description of a grouping or pooling of subject race for analysis purposes."^^xsd:string ;
  mms:dataElementLabel "Pooled Race Group y"^^xsd:string ;
  mms:dataElementName "RACEGRy"^^xsd:string ;
  mms:dataElementType "xsd:string"^^xsd:anySimpleType ;
  mms:ordinal "11"^^xsd:positiveInteger ;
  cdiscs:dataElementCompliance <http://rdf.cdisc.org/std/adamig-1-0#Classifier.PermissibleVariable> ;
  cdiscs:dataElementType <http://rdf.cdisc.org/std/schema#Classifier.Character> ;
.
<http://rdf.cdisc.org/std/adamig-1-0#Column.ADSL.RACEGRyN>
  rdf:type mms:Column ;
  mms:context <http://rdf.cdisc.org/std/adamig-1-0#ADSL.SubjectDemographicVariables> ;
  mms:dataElementDescription "The numeric code for RACEGRy. Orders the grouping or pooling of subject race for analysis and reporting. One-to-one map to RACEGRy."^^xsd:string ;
  mms:dataElementLabel "Pooled Race Group y (N)"^^xsd:string ;
  mms:dataElementName "RACEGRyN"^^xsd:string ;
  mms:dataElementType "xsd:integer"^^xsd:anySimpleType ;
  mms:ordinal "12"^^xsd:positiveInteger ;
  cdiscs:dataElementCompliance <http://rdf.cdisc.org/std/adamig-1-0#Classifier.PermissibleVariable> ;
  cdiscs:dataElementType <http://rdf.cdisc.org/std/schema#Classifier.Numeric> ;
.
<http://rdf.cdisc.org/std/adamig-1-0#Column.ADSL.RANDDT>
  rdf:type mms:Column ;
  mms:context <http://rdf.cdisc.org/std/adamig-1-0#ADSL.TrialDateVariables> ;
  mms:dataElementDescription "Required in randomized trials."^^xsd:string ;
  mms:dataElementLabel "Date of Randomization"^^xsd:string ;
  mms:dataElementName "RANDDT"^^xsd:string ;
  mms:dataElementType "xsd:integer"^^xsd:anySimpleType ;
  mms:ordinal "33"^^xsd:positiveInteger ;
  cdiscs:dataElementCompliance <http://rdf.cdisc.org/std/adamig-1-0#Classifier.ConditionalVariable> ;
  cdiscs:dataElementType <http://rdf.cdisc.org/std/schema#Classifier.Numeric> ;
.
<http://rdf.cdisc.org/std/adamig-1-0#Column.ADSL.RANDFL>
  rdf:type mms:Column ;
  mms:context <http://rdf.cdisc.org/std/adamig-1-0#ADSL.PopulationIndicatorVariables> ;
  mms:dataElementDescription "A character indicator variable is required for every population that is defined in the statistical analysis plan. A minimum of one subject-level population flag variable is required for every clinical trial. Additional population flags may be added. The values of subject-level population flags cannot be blank. If a flag is used, the corresponding numeric version (*FN) can also be included."^^xsd:string ;
  mms:dataElementLabel "Randomized Population Flag"^^xsd:string ;
  mms:dataElementName "RANDFL"^^xsd:string ;
  mms:dataElementType "xsd:string"^^xsd:anySimpleType ;
  mms:ordinal "18"^^xsd:positiveInteger ;
  cdiscs:controlledTermsOrFormat "Y, N"^^xsd:string ;
  cdiscs:dataElementCompliance <http://rdf.cdisc.org/std/adamig-1-0#Classifier.ConditionalVariable> ;
  cdiscs:dataElementType <http://rdf.cdisc.org/std/schema#Classifier.Character> ;
.
<http://rdf.cdisc.org/std/adamig-1-0#Column.ADSL.SAFFL>
  rdf:type mms:Column ;
  mms:context <http://rdf.cdisc.org/std/adamig-1-0#ADSL.PopulationIndicatorVariables> ;
  mms:dataElementDescription "A character indicator variable is required for every population that is defined in the statistical analysis plan. A minimum of one subject-level population flag variable is required for every clinical trial. Additional population flags may be added. The values of subject-level population flags cannot be blank. If a flag is used, the corresponding numeric version (*FN) can also be included."^^xsd:string ;
  mms:dataElementLabel "Safety Population Flag"^^xsd:string ;
  mms:dataElementName "SAFFL"^^xsd:string ;
  mms:dataElementType "xsd:string"^^xsd:anySimpleType ;
  mms:ordinal "14"^^xsd:positiveInteger ;
  cdiscs:controlledTermsOrFormat "Y, N"^^xsd:string ;
  cdiscs:dataElementCompliance <http://rdf.cdisc.org/std/adamig-1-0#Classifier.ConditionalVariable> ;
  cdiscs:dataElementType <http://rdf.cdisc.org/std/schema#Classifier.Character> ;
.
<http://rdf.cdisc.org/std/adamig-1-0#Column.ADSL.SEX>
  rdf:type mms:Column ;
  mms:context <http://rdf.cdisc.org/std/adamig-1-0#ADSL.SubjectDemographicVariables> ;
  mms:dataElementDescription "The sex of the subject is a required variable in ADSL. If the variable is not a copy of DM.SEX, then an additional differently named variable must be added."^^xsd:string ;
  mms:dataElementLabel "Sex"^^xsd:string ;
  mms:dataElementName "SEX"^^xsd:string ;
  mms:dataElementType "xsd:string"^^xsd:anySimpleType ;
  mms:dataElementValueDomain sdtmct:C66731 ;
  mms:ordinal "9"^^xsd:positiveInteger ;
  cdiscs:controlledTermsOrFormat "(SEX)"^^xsd:string ;
  cdiscs:dataElementCompliance <http://rdf.cdisc.org/std/adamig-1-0#Classifier.RequiredVariable> ;
  cdiscs:dataElementType <http://rdf.cdisc.org/std/schema#Classifier.Character> ;
.
<http://rdf.cdisc.org/std/adamig-1-0#Column.ADSL.SITEGRy>
  rdf:type mms:Column ;
  mms:context <http://rdf.cdisc.org/std/adamig-1-0#ADSL.StudyIdentifierVariables> ;
  mms:dataElementDescription "Character description of a grouping or pooling of clinical sites for analysis purposes. For example, SITEGR3 is the name of a variable containing site group (pooled site) names, where the grouping has been done according to the third site grouping algorithm, defined in variable metadata; SITEGR3 does not mean the third group of sites."^^xsd:string ;
  mms:dataElementLabel "Pooled Site Group y"^^xsd:string ;
  mms:dataElementName "SITEGRy"^^xsd:string ;
  mms:dataElementType "xsd:string"^^xsd:anySimpleType ;
  mms:ordinal "5"^^xsd:positiveInteger ;
  cdiscs:dataElementCompliance <http://rdf.cdisc.org/std/adamig-1-0#Classifier.PermissibleVariable> ;
  cdiscs:dataElementType <http://rdf.cdisc.org/std/schema#Classifier.Character> ;
.
<http://rdf.cdisc.org/std/adamig-1-0#Column.ADSL.SITEGRyN>
  rdf:type mms:Column ;
  mms:context <http://rdf.cdisc.org/std/adamig-1-0#ADSL.StudyIdentifierVariables> ;
  mms:dataElementDescription "The numeric code for SITEGRy. One-to-one map to SITEGRy."^^xsd:string ;
  mms:dataElementLabel "Pooled Site Group y (N)"^^xsd:string ;
  mms:dataElementName "SITEGRyN"^^xsd:string ;
  mms:dataElementType "xsd:integer"^^xsd:anySimpleType ;
  mms:ordinal "6"^^xsd:positiveInteger ;
  cdiscs:dataElementCompliance <http://rdf.cdisc.org/std/adamig-1-0#Classifier.PermissibleVariable> ;
  cdiscs:dataElementType <http://rdf.cdisc.org/std/schema#Classifier.Numeric> ;
.
<http://rdf.cdisc.org/std/adamig-1-0#Column.ADSL.SITEID>
  rdf:type mms:Column ;
  mms:context <http://rdf.cdisc.org/std/adamig-1-0#ADSL.StudyIdentifierVariables> ;
  mms:dataElementDescription "Must be identical to the SDTM variables DM.STUDYID, DM.USUBJID, DM.SUBJID and DM.SITEID."^^xsd:string ;
  mms:dataElementLabel "Study Site Identifier"^^xsd:string ;
  mms:dataElementName "SITEID"^^xsd:string ;
  mms:dataElementType "xsd:string"^^xsd:anySimpleType ;
  mms:ordinal "4"^^xsd:positiveInteger ;
  cdiscs:dataElementCompliance <http://rdf.cdisc.org/std/adamig-1-0#Classifier.RequiredVariable> ;
  cdiscs:dataElementType <http://rdf.cdisc.org/std/schema#Classifier.Character> ;
.
<http://rdf.cdisc.org/std/adamig-1-0#Column.ADSL.STUDYID>
  rdf:type mms:Column ;
  mms:context <http://rdf.cdisc.org/std/adamig-1-0#ADSL.StudyIdentifierVariables> ;
  mms:dataElementDescription "Must be identical to the SDTM variables DM.STUDYID, DM.USUBJID, DM.SUBJID and DM.SITEID."^^xsd:string ;
  mms:dataElementLabel "Study Identifier"^^xsd:string ;
  mms:dataElementName "STUDYID"^^xsd:string ;
  mms:dataElementType "xsd:string"^^xsd:anySimpleType ;
  mms:ordinal "1"^^xsd:positiveInteger ;
  cdiscs:dataElementCompliance <http://rdf.cdisc.org/std/adamig-1-0#Classifier.RequiredVariable> ;
  cdiscs:dataElementType <http://rdf.cdisc.org/std/schema#Classifier.Character> ;
.
<http://rdf.cdisc.org/std/adamig-1-0#Column.ADSL.SUBJID>
  rdf:type mms:Column ;
  mms:context <http://rdf.cdisc.org/std/adamig-1-0#ADSL.StudyIdentifierVariables> ;
  mms:dataElementDescription "Must be identical to the SDTM variables DM.STUDYID, DM.USUBJID, DM.SUBJID and DM.SITEID."^^xsd:string ;
  mms:dataElementLabel "Subject Identifier for the Study"^^xsd:string ;
  mms:dataElementName "SUBJID"^^xsd:string ;
  mms:dataElementType "xsd:string"^^xsd:anySimpleType ;
  mms:ordinal "3"^^xsd:positiveInteger ;
  cdiscs:dataElementCompliance <http://rdf.cdisc.org/std/adamig-1-0#Classifier.RequiredVariable> ;
  cdiscs:dataElementType <http://rdf.cdisc.org/std/schema#Classifier.Character> ;
.
<http://rdf.cdisc.org/std/adamig-1-0#Column.ADSL.TRTEDT>
  rdf:type mms:Column ;
  mms:context <http://rdf.cdisc.org/std/adamig-1-0#ADSL.TrialDateVariables> ;
  mms:dataElementDescription "Date of last exposure to treatment for a subject in a study. TRTEDT and/or TRTEDTM are required if there is an investigational product."^^xsd:string ;
  mms:dataElementLabel "Date of Last Exposure to Treatment"^^xsd:string ;
  mms:dataElementName "TRTEDT"^^xsd:string ;
  mms:dataElementType "xsd:integer"^^xsd:anySimpleType ;
  mms:ordinal "39"^^xsd:positiveInteger ;
  cdiscs:dataElementCompliance <http://rdf.cdisc.org/std/adamig-1-0#Classifier.ConditionalVariable> ;
  cdiscs:dataElementType <http://rdf.cdisc.org/std/schema#Classifier.Numeric> ;
.
<http://rdf.cdisc.org/std/adamig-1-0#Column.ADSL.TRTEDTF>
  rdf:type mms:Column ;
  mms:context <http://rdf.cdisc.org/std/adamig-1-0#ADSL.TrialDateVariables> ;
  mms:dataElementDescription "The level of imputation of date of last exposure to treatment. See General Timing Variable Convention #6."^^xsd:string ;
  mms:dataElementLabel "Date of Last Exposure Imput. Flag"^^xsd:string ;
  mms:dataElementName "TRTEDTF"^^xsd:string ;
  mms:dataElementType "xsd:string"^^xsd:anySimpleType ;
  mms:dataElementValueDomain adamct:C81223 ;
  mms:ordinal "42"^^xsd:positiveInteger ;
  cdiscs:controlledTermsOrFormat "(DATEFL)"^^xsd:string ;
  cdiscs:dataElementCompliance <http://rdf.cdisc.org/std/adamig-1-0#Classifier.ConditionalVariable> ;
  cdiscs:dataElementType <http://rdf.cdisc.org/std/schema#Classifier.Character> ;
.
<http://rdf.cdisc.org/std/adamig-1-0#Column.ADSL.TRTEDTM>
  rdf:type mms:Column ;
  mms:context <http://rdf.cdisc.org/std/adamig-1-0#ADSL.TrialDateVariables> ;
  mms:dataElementDescription "Datetime of last exposure to treatment for a subject in a study. TRTEDT and/or TRTEDTM are required if there is an investigational product."^^xsd:string ;
  mms:dataElementLabel "Datetime of Last Exposure to Treatment"^^xsd:string ;
  mms:dataElementName "TRTEDTM"^^xsd:string ;
  mms:dataElementType "xsd:integer"^^xsd:anySimpleType ;
  mms:ordinal "41"^^xsd:positiveInteger ;
  cdiscs:dataElementCompliance <http://rdf.cdisc.org/std/adamig-1-0#Classifier.ConditionalVariable> ;
  cdiscs:dataElementType <http://rdf.cdisc.org/std/schema#Classifier.Numeric> ;
.
<http://rdf.cdisc.org/std/adamig-1-0#Column.ADSL.TRTETM>
  rdf:type mms:Column ;
  mms:context <http://rdf.cdisc.org/std/adamig-1-0#ADSL.TrialDateVariables> ;
  mms:dataElementDescription "Time of last exposure to treatment for a subject in a study."^^xsd:string ;
  mms:dataElementLabel "Time of Last Exposure to Treatment"^^xsd:string ;
  mms:dataElementName "TRTETM"^^xsd:string ;
  mms:dataElementType "xsd:integer"^^xsd:anySimpleType ;
  mms:ordinal "40"^^xsd:positiveInteger ;
  cdiscs:dataElementCompliance <http://rdf.cdisc.org/std/adamig-1-0#Classifier.PermissibleVariable> ;
  cdiscs:dataElementType <http://rdf.cdisc.org/std/schema#Classifier.Numeric> ;
.
<http://rdf.cdisc.org/std/adamig-1-0#Column.ADSL.TRTETMF>
  rdf:type mms:Column ;
  mms:context <http://rdf.cdisc.org/std/adamig-1-0#ADSL.TrialDateVariables> ;
  mms:dataElementDescription "The level of imputation of time of last exposure to treatment. See General Timing Variable Convention #7."^^xsd:string ;
  mms:dataElementLabel "Time of Last Exposure Imput. Flag"^^xsd:string ;
  mms:dataElementName "TRTETMF"^^xsd:string ;
  mms:dataElementType "xsd:string"^^xsd:anySimpleType ;
  mms:dataElementValueDomain adamct:C81226 ;
  mms:ordinal "43"^^xsd:positiveInteger ;
  cdiscs:controlledTermsOrFormat "(TIMEFL)"^^xsd:string ;
  cdiscs:dataElementCompliance <http://rdf.cdisc.org/std/adamig-1-0#Classifier.ConditionalVariable> ;
  cdiscs:dataElementType <http://rdf.cdisc.org/std/schema#Classifier.Character> ;
.
<http://rdf.cdisc.org/std/adamig-1-0#Column.ADSL.TRTSDT>
  rdf:type mms:Column ;
  mms:context <http://rdf.cdisc.org/std/adamig-1-0#ADSL.TrialDateVariables> ;
  mms:dataElementDescription "Date of first exposure to treatment for a subject in a study. TRTSDT and/or TRTSDTM are required if there is an investigational product."^^xsd:string ;
  mms:dataElementLabel "Date of First Exposure to Treatment"^^xsd:string ;
  mms:dataElementName "TRTSDT"^^xsd:string ;
  mms:dataElementType "xsd:integer"^^xsd:anySimpleType ;
  mms:ordinal "34"^^xsd:positiveInteger ;
  cdiscs:dataElementCompliance <http://rdf.cdisc.org/std/adamig-1-0#Classifier.ConditionalVariable> ;
  cdiscs:dataElementType <http://rdf.cdisc.org/std/schema#Classifier.Numeric> ;
.
<http://rdf.cdisc.org/std/adamig-1-0#Column.ADSL.TRTSDTF>
  rdf:type mms:Column ;
  mms:context <http://rdf.cdisc.org/std/adamig-1-0#ADSL.TrialDateVariables> ;
  mms:dataElementDescription "The level of imputation of date of first exposure to treatment. See General Timing Variable Convention #6."^^xsd:string ;
  mms:dataElementLabel "Date of First Exposure Imput. Flag"^^xsd:string ;
  mms:dataElementName "TRTSDTF"^^xsd:string ;
  mms:dataElementType "xsd:string"^^xsd:anySimpleType ;
  mms:dataElementValueDomain adamct:C81223 ;
  mms:ordinal "37"^^xsd:positiveInteger ;
  cdiscs:controlledTermsOrFormat "(DATEFL)"^^xsd:string ;
  cdiscs:dataElementCompliance <http://rdf.cdisc.org/std/adamig-1-0#Classifier.ConditionalVariable> ;
  cdiscs:dataElementType <http://rdf.cdisc.org/std/schema#Classifier.Character> ;
.
<http://rdf.cdisc.org/std/adamig-1-0#Column.ADSL.TRTSDTM>
  rdf:type mms:Column ;
  mms:context <http://rdf.cdisc.org/std/adamig-1-0#ADSL.TrialDateVariables> ;
  mms:dataElementDescription "Datetime of first exposure to treatment for a subject in a study. TRTSDT and/or TRTSDTM are required if there is an investigational product."^^xsd:string ;
  mms:dataElementLabel "Datetime of First Exposure to Treatment"^^xsd:string ;
  mms:dataElementName "TRTSDTM"^^xsd:string ;
  mms:dataElementType "xsd:integer"^^xsd:anySimpleType ;
  mms:ordinal "36"^^xsd:positiveInteger ;
  cdiscs:dataElementCompliance <http://rdf.cdisc.org/std/adamig-1-0#Classifier.ConditionalVariable> ;
  cdiscs:dataElementType <http://rdf.cdisc.org/std/schema#Classifier.Numeric> ;
.
<http://rdf.cdisc.org/std/adamig-1-0#Column.ADSL.TRTSEQA>
  rdf:type mms:Column ;
  mms:context <http://rdf.cdisc.org/std/adamig-1-0#ADSL.TreatmentVariables> ;
  mms:dataElementDescription "TRTSEQA is required if a situation occurred in the conduct of the trial where a subject received a sequence of treatments other than what was planned."^^xsd:string ;
  mms:dataElementLabel "Actual Sequence of Treatments"^^xsd:string ;
  mms:dataElementName "TRTSEQA"^^xsd:string ;
  mms:dataElementType "xsd:string"^^xsd:anySimpleType ;
  mms:ordinal "27"^^xsd:positiveInteger ;
  cdiscs:dataElementCompliance <http://rdf.cdisc.org/std/adamig-1-0#Classifier.ConditionalVariable> ;
  cdiscs:dataElementType <http://rdf.cdisc.org/std/schema#Classifier.Character> ;
.
<http://rdf.cdisc.org/std/adamig-1-0#Column.ADSL.TRTSEQAN>
  rdf:type mms:Column ;
  mms:context <http://rdf.cdisc.org/std/adamig-1-0#ADSL.TreatmentVariables> ;
  mms:dataElementDescription "Numeric version of TRTSEQA. One-to-one map to TRTSEQA."^^xsd:string ;
  mms:dataElementLabel "Actual Sequence of Treatments (N)"^^xsd:string ;
  mms:dataElementName "TRTSEQAN"^^xsd:string ;
  mms:dataElementType "xsd:integer"^^xsd:anySimpleType ;
  mms:ordinal "28"^^xsd:positiveInteger ;
  cdiscs:dataElementCompliance <http://rdf.cdisc.org/std/adamig-1-0#Classifier.PermissibleVariable> ;
  cdiscs:dataElementType <http://rdf.cdisc.org/std/schema#Classifier.Numeric> ;
.
<http://rdf.cdisc.org/std/adamig-1-0#Column.ADSL.TRTSEQP>
  rdf:type mms:Column ;
  mms:context <http://rdf.cdisc.org/std/adamig-1-0#ADSL.TreatmentVariables> ;
  mms:dataElementDescription "Required when there is a sequence of treatments that are analyzed, for example in a crossover design. TRTSEQP is not necessarily equal to ARM, for example if ARM contains elements that are not relevant to analysis of treatments or ARM is not fully descriptive (e.g.,\"GROUP 1\", \"GROUP 2\"). Whenever applicable, TRTSEQP is required even if identical to ARM. TRTSEQPN Planned Sequence of Treatments (N) Num Perm Numeric version of TRTSEQP. One-to-one map to TRTSEQP."^^xsd:string ;
  mms:dataElementLabel "Planned Sequence of Treatments"^^xsd:string ;
  mms:dataElementName "TRTSEQP"^^xsd:string ;
  mms:dataElementType "xsd:string"^^xsd:anySimpleType ;
  mms:ordinal "25"^^xsd:positiveInteger ;
  cdiscs:dataElementCompliance <http://rdf.cdisc.org/std/adamig-1-0#Classifier.ConditionalVariable> ;
  cdiscs:dataElementType <http://rdf.cdisc.org/std/schema#Classifier.Character> ;
.
<http://rdf.cdisc.org/std/adamig-1-0#Column.ADSL.TRTSEQPN>
  rdf:type mms:Column ;
  mms:context <http://rdf.cdisc.org/std/adamig-1-0#ADSL.TreatmentVariables> ;
  mms:dataElementDescription "Numeric version of TRTSEQP. One-to-one map to TRTSEQP."^^xsd:string ;
  mms:dataElementLabel "Planned Sequence of Treatments (N)"^^xsd:string ;
  mms:dataElementName "TRTSEQPN"^^xsd:string ;
  mms:dataElementType "xsd:integer"^^xsd:anySimpleType ;
  mms:ordinal "26"^^xsd:positiveInteger ;
  cdiscs:dataElementCompliance <http://rdf.cdisc.org/std/adamig-1-0#Classifier.PermissibleVariable> ;
  cdiscs:dataElementType <http://rdf.cdisc.org/std/schema#Classifier.Numeric> ;
.
<http://rdf.cdisc.org/std/adamig-1-0#Column.ADSL.TRTSTM>
  rdf:type mms:Column ;
  mms:context <http://rdf.cdisc.org/std/adamig-1-0#ADSL.TrialDateVariables> ;
  mms:dataElementDescription "Time of first exposure to treatment for a subject in a study."^^xsd:string ;
  mms:dataElementLabel "Time of First Exposure to Treatment"^^xsd:string ;
  mms:dataElementName "TRTSTM"^^xsd:string ;
  mms:dataElementType "xsd:integer"^^xsd:anySimpleType ;
  mms:ordinal "35"^^xsd:positiveInteger ;
  cdiscs:dataElementCompliance <http://rdf.cdisc.org/std/adamig-1-0#Classifier.PermissibleVariable> ;
  cdiscs:dataElementType <http://rdf.cdisc.org/std/schema#Classifier.Numeric> ;
.
<http://rdf.cdisc.org/std/adamig-1-0#Column.ADSL.TRTSTMF>
  rdf:type mms:Column ;
  mms:context <http://rdf.cdisc.org/std/adamig-1-0#ADSL.TrialDateVariables> ;
  mms:dataElementDescription "The level of imputation of time of first exposure to treatment. See General Timing Variable Convention #7."^^xsd:string ;
  mms:dataElementLabel "Time of First Exposure Imput. Flag"^^xsd:string ;
  mms:dataElementName "TRTSTMF"^^xsd:string ;
  mms:dataElementType "xsd:string"^^xsd:anySimpleType ;
  mms:dataElementValueDomain adamct:C81226 ;
  mms:ordinal "38"^^xsd:positiveInteger ;
  cdiscs:controlledTermsOrFormat "(TIMEFL)"^^xsd:string ;
  cdiscs:dataElementCompliance <http://rdf.cdisc.org/std/adamig-1-0#Classifier.ConditionalVariable> ;
  cdiscs:dataElementType <http://rdf.cdisc.org/std/schema#Classifier.Character> ;
.
<http://rdf.cdisc.org/std/adamig-1-0#Column.ADSL.TRTxxA>
  rdf:type mms:Column ;
  mms:context <http://rdf.cdisc.org/std/adamig-1-0#ADSL.TreatmentVariables> ;
  mms:dataElementDescription "Subject-level identifier that represents the actual treatment for the subject for period xx. Required when actual treatment does not match planned and there is an analysis of the data as treated."^^xsd:string ;
  mms:dataElementLabel "Actual Treatment for Period xx"^^xsd:string ;
  mms:dataElementName "TRTxxA"^^xsd:string ;
  mms:dataElementType "xsd:string"^^xsd:anySimpleType ;
  mms:ordinal "23"^^xsd:positiveInteger ;
  cdiscs:dataElementCompliance <http://rdf.cdisc.org/std/adamig-1-0#Classifier.ConditionalVariable> ;
  cdiscs:dataElementType <http://rdf.cdisc.org/std/schema#Classifier.Character> ;
.
<http://rdf.cdisc.org/std/adamig-1-0#Column.ADSL.TRTxxAN>
  rdf:type mms:Column ;
  mms:context <http://rdf.cdisc.org/std/adamig-1-0#ADSL.TreatmentVariables> ;
  mms:dataElementDescription "The numeric code variable for TRTxxA. One-to-one map to TRTxxA."^^xsd:string ;
  mms:dataElementLabel "Actual Treatment for Period xx (N)"^^xsd:string ;
  mms:dataElementName "TRTxxAN"^^xsd:string ;
  mms:dataElementType "xsd:integer"^^xsd:anySimpleType ;
  mms:ordinal "24"^^xsd:positiveInteger ;
  cdiscs:dataElementCompliance <http://rdf.cdisc.org/std/adamig-1-0#Classifier.PermissibleVariable> ;
  cdiscs:dataElementType <http://rdf.cdisc.org/std/schema#Classifier.Numeric> ;
.
<http://rdf.cdisc.org/std/adamig-1-0#Column.ADSL.TRTxxP>
  rdf:type mms:Column ;
  mms:context <http://rdf.cdisc.org/std/adamig-1-0#ADSL.TreatmentVariables> ;
  mms:dataElementDescription "Subject-level identifier that represents the planned treatment for period xx. In a one-period randomized trial, TRT01P would be the treatment to which the subject was randomized. TRTxxP might be derived from the SDTM DM variable ARM. At least TRT01P is required."^^xsd:string ;
  mms:dataElementLabel "Planned Treatment for Period xx"^^xsd:string ;
  mms:dataElementName "TRTxxP"^^xsd:string ;
  mms:dataElementType "xsd:string"^^xsd:anySimpleType ;
  mms:ordinal "21"^^xsd:positiveInteger ;
  cdiscs:dataElementCompliance <http://rdf.cdisc.org/std/adamig-1-0#Classifier.RequiredVariable> ;
  cdiscs:dataElementType <http://rdf.cdisc.org/std/schema#Classifier.Character> ;
.
<http://rdf.cdisc.org/std/adamig-1-0#Column.ADSL.TRTxxPN>
  rdf:type mms:Column ;
  mms:context <http://rdf.cdisc.org/std/adamig-1-0#ADSL.TreatmentVariables> ;
  mms:dataElementDescription "The numeric code variable for TRTxxP. One-to-one map to TRTxxP."^^xsd:string ;
  mms:dataElementLabel "Planned Treatment for Period xx (N)"^^xsd:string ;
  mms:dataElementName "TRTxxPN"^^xsd:string ;
  mms:dataElementType "xsd:integer"^^xsd:anySimpleType ;
  mms:ordinal "22"^^xsd:positiveInteger ;
  cdiscs:dataElementCompliance <http://rdf.cdisc.org/std/adamig-1-0#Classifier.PermissibleVariable> ;
  cdiscs:dataElementType <http://rdf.cdisc.org/std/schema#Classifier.Numeric> ;
.
<http://rdf.cdisc.org/std/adamig-1-0#Column.ADSL.TRxxAGy>
  rdf:type mms:Column ;
  mms:context <http://rdf.cdisc.org/std/adamig-1-0#ADSL.TreatmentVariables> ;
  mms:dataElementDescription "Actual pooled treatment y for period xx. Required when TRxxPGy is present and TRTxxA is present."^^xsd:string ;
  mms:dataElementLabel "Actual Pooled Treatment y for Period xx"^^xsd:string ;
  mms:dataElementName "TRxxAGy"^^xsd:string ;
  mms:dataElementType "xsd:string"^^xsd:anySimpleType ;
  mms:ordinal "31"^^xsd:positiveInteger ;
  cdiscs:dataElementCompliance <http://rdf.cdisc.org/std/adamig-1-0#Classifier.ConditionalVariable> ;
  cdiscs:dataElementType <http://rdf.cdisc.org/std/schema#Classifier.Character> ;
.
<http://rdf.cdisc.org/std/adamig-1-0#Column.ADSL.TRxxAGyN>
  rdf:type mms:Column ;
  mms:context <http://rdf.cdisc.org/std/adamig-1-0#ADSL.TreatmentVariables> ;
  mms:dataElementDescription "The numeric code for TRxxAGy. One-to-one map to TRxxAGy."^^xsd:string ;
  mms:dataElementLabel "Actual Pooled Trt y for Period xx (N)"^^xsd:string ;
  mms:dataElementName "TRxxAGyN"^^xsd:string ;
  mms:dataElementType "xsd:integer"^^xsd:anySimpleType ;
  mms:ordinal "32"^^xsd:positiveInteger ;
  cdiscs:dataElementCompliance <http://rdf.cdisc.org/std/adamig-1-0#Classifier.PermissibleVariable> ;
  cdiscs:dataElementType <http://rdf.cdisc.org/std/schema#Classifier.Numeric> ;
.
<http://rdf.cdisc.org/std/adamig-1-0#Column.ADSL.TRxxEDT>
  rdf:type mms:Column ;
  mms:context <http://rdf.cdisc.org/std/adamig-1-0#ADSL.TrialDateVariables> ;
  mms:dataElementDescription "Date of last exposure in period xx. TRxxEDT and/or TRxxEDTM are required in trial designs where multiple treatments are given to the same subject, such as a crossover design."^^xsd:string ;
  mms:dataElementLabel "Date of Last Exposure in Period xx"^^xsd:string ;
  mms:dataElementName "TRxxEDT"^^xsd:string ;
  mms:dataElementType "xsd:integer"^^xsd:anySimpleType ;
  mms:ordinal "49"^^xsd:positiveInteger ;
  cdiscs:dataElementCompliance <http://rdf.cdisc.org/std/adamig-1-0#Classifier.ConditionalVariable> ;
  cdiscs:dataElementType <http://rdf.cdisc.org/std/schema#Classifier.Numeric> ;
.
<http://rdf.cdisc.org/std/adamig-1-0#Column.ADSL.TRxxEDTF>
  rdf:type mms:Column ;
  mms:context <http://rdf.cdisc.org/std/adamig-1-0#ADSL.TrialDateVariables> ;
  mms:dataElementDescription "The level of imputation of date of last exposure in period xx. See General Timing Variable Convention #6."^^xsd:string ;
  mms:dataElementLabel "Date Last Exposure Period xx Imput. Flag"^^xsd:string ;
  mms:dataElementName "TRxxEDTF"^^xsd:string ;
  mms:dataElementType "xsd:string"^^xsd:anySimpleType ;
  mms:dataElementValueDomain adamct:C81223 ;
  mms:ordinal "52"^^xsd:positiveInteger ;
  cdiscs:controlledTermsOrFormat "(DATEFL)"^^xsd:string ;
  cdiscs:dataElementCompliance <http://rdf.cdisc.org/std/adamig-1-0#Classifier.ConditionalVariable> ;
  cdiscs:dataElementType <http://rdf.cdisc.org/std/schema#Classifier.Character> ;
.
<http://rdf.cdisc.org/std/adamig-1-0#Column.ADSL.TRxxEDTM>
  rdf:type mms:Column ;
  mms:context <http://rdf.cdisc.org/std/adamig-1-0#ADSL.TrialDateVariables> ;
  mms:dataElementDescription "The datetime of last exposure to treatment in period xx. TRxxEDT and/or TRxxEDTM are required in trial designs where multiple treatments are given to the same subject, such as a crossover design."^^xsd:string ;
  mms:dataElementLabel "Datetime of Last Exposure in Period xx"^^xsd:string ;
  mms:dataElementName "TRxxEDTM"^^xsd:string ;
  mms:dataElementType "xsd:integer"^^xsd:anySimpleType ;
  mms:ordinal "51"^^xsd:positiveInteger ;
  cdiscs:dataElementCompliance <http://rdf.cdisc.org/std/adamig-1-0#Classifier.ConditionalVariable> ;
  cdiscs:dataElementType <http://rdf.cdisc.org/std/schema#Classifier.Numeric> ;
.
<http://rdf.cdisc.org/std/adamig-1-0#Column.ADSL.TRxxETM>
  rdf:type mms:Column ;
  mms:context <http://rdf.cdisc.org/std/adamig-1-0#ADSL.TrialDateVariables> ;
  mms:dataElementDescription "The ending time of exposure in period xx. TRxxETM and/or TRxxEDTM are required in trial designs where multiple treatments are given to the same subject, such as a crossover design, and ending time is important to the analysis."^^xsd:string ;
  mms:dataElementLabel "Time of Last Exposure in Period xx"^^xsd:string ;
  mms:dataElementName "TRxxETM"^^xsd:string ;
  mms:dataElementType "xsd:integer"^^xsd:anySimpleType ;
  mms:ordinal "50"^^xsd:positiveInteger ;
  cdiscs:dataElementCompliance <http://rdf.cdisc.org/std/adamig-1-0#Classifier.ConditionalVariable> ;
  cdiscs:dataElementType <http://rdf.cdisc.org/std/schema#Classifier.Numeric> ;
.
<http://rdf.cdisc.org/std/adamig-1-0#Column.ADSL.TRxxETMF>
  rdf:type mms:Column ;
  mms:context <http://rdf.cdisc.org/std/adamig-1-0#ADSL.TrialDateVariables> ;
  mms:dataElementDescription "The level of imputation of time of last exposure in period xx. See General Timing Variable Convention #7."^^xsd:string ;
  mms:dataElementLabel "Time Last Exposure Period xx Imput. Flag"^^xsd:string ;
  mms:dataElementName "TRxxETMF"^^xsd:string ;
  mms:dataElementType "xsd:string"^^xsd:anySimpleType ;
  mms:dataElementValueDomain adamct:C81226 ;
  mms:ordinal "53"^^xsd:positiveInteger ;
  cdiscs:controlledTermsOrFormat "(TIMEFL)"^^xsd:string ;
  cdiscs:dataElementCompliance <http://rdf.cdisc.org/std/adamig-1-0#Classifier.ConditionalVariable> ;
  cdiscs:dataElementType <http://rdf.cdisc.org/std/schema#Classifier.Character> ;
.
<http://rdf.cdisc.org/std/adamig-1-0#Column.ADSL.TRxxPGy>
  rdf:type mms:Column ;
  mms:context <http://rdf.cdisc.org/std/adamig-1-0#ADSL.TreatmentVariables> ;
  mms:dataElementDescription "Planned pooled treatment y for period xx. Useful when planned treatments (TRTxxP) in the specified period xx are pooled together for analysis according to pooling algorithm y. For example when in period 2 the first pooling algorithm dictates that all doses of Drug A (TR02PG1=\"All doses of Drug A\") are pooled together for comparison to all doses of Drug B (TR02PG1=\"All doses of Drug B\"). Each value of TRTxxP is pooled within at most one value of TRxxPGy."^^xsd:string ;
  mms:dataElementLabel "Planned Pooled Treatment y for Period xx"^^xsd:string ;
  mms:dataElementName "TRxxPGy"^^xsd:string ;
  mms:dataElementType "xsd:string"^^xsd:anySimpleType ;
  mms:ordinal "29"^^xsd:positiveInteger ;
  cdiscs:dataElementCompliance <http://rdf.cdisc.org/std/adamig-1-0#Classifier.PermissibleVariable> ;
  cdiscs:dataElementType <http://rdf.cdisc.org/std/schema#Classifier.Character> ;
.
<http://rdf.cdisc.org/std/adamig-1-0#Column.ADSL.TRxxPGyN>
  rdf:type mms:Column ;
  mms:context <http://rdf.cdisc.org/std/adamig-1-0#ADSL.TreatmentVariables> ;
  mms:dataElementDescription "The numeric code for TRxxPGy. One-to-one map to TRxxPGy."^^xsd:string ;
  mms:dataElementLabel "Planned Pooled Trt y for Period xx (N)"^^xsd:string ;
  mms:dataElementName "TRxxPGyN"^^xsd:string ;
  mms:dataElementType "xsd:integer"^^xsd:anySimpleType ;
  mms:ordinal "30"^^xsd:positiveInteger ;
  cdiscs:dataElementCompliance <http://rdf.cdisc.org/std/adamig-1-0#Classifier.PermissibleVariable> ;
  cdiscs:dataElementType <http://rdf.cdisc.org/std/schema#Classifier.Numeric> ;
.
<http://rdf.cdisc.org/std/adamig-1-0#Column.ADSL.TRxxSDT>
  rdf:type mms:Column ;
  mms:context <http://rdf.cdisc.org/std/adamig-1-0#ADSL.TrialDateVariables> ;
  mms:dataElementDescription "Date of first exposure to treatment in period xx. TRxxSDT and/or TRxxSDTM is required in trial designs where multiple treatments are given to the same subject, such as a crossover design. Also useful in designs where multiple periods exist for the same treatment (i.e., multiple cycles of the same study treatment)."^^xsd:string ;
  mms:dataElementLabel "Date of First Exposure in Period xx"^^xsd:string ;
  mms:dataElementName "TRxxSDT"^^xsd:string ;
  mms:dataElementType "xsd:integer"^^xsd:anySimpleType ;
  mms:ordinal "44"^^xsd:positiveInteger ;
  cdiscs:dataElementCompliance <http://rdf.cdisc.org/std/adamig-1-0#Classifier.ConditionalVariable> ;
  cdiscs:dataElementType <http://rdf.cdisc.org/std/schema#Classifier.Numeric> ;
.
<http://rdf.cdisc.org/std/adamig-1-0#Column.ADSL.TRxxSDTF>
  rdf:type mms:Column ;
  mms:context <http://rdf.cdisc.org/std/adamig-1-0#ADSL.TrialDateVariables> ;
  mms:dataElementDescription "The level of imputation of date of first exposure to treatment in period xx. See General Timing Variable Convention #6."^^xsd:string ;
  mms:dataElementLabel "Date 1st Exposure Period xx Imput. Flag"^^xsd:string ;
  mms:dataElementName "TRxxSDTF"^^xsd:string ;
  mms:dataElementType "xsd:string"^^xsd:anySimpleType ;
  mms:dataElementValueDomain adamct:C81223 ;
  mms:ordinal "47"^^xsd:positiveInteger ;
  cdiscs:controlledTermsOrFormat "(DATEFL)"^^xsd:string ;
  cdiscs:dataElementCompliance <http://rdf.cdisc.org/std/adamig-1-0#Classifier.ConditionalVariable> ;
  cdiscs:dataElementType <http://rdf.cdisc.org/std/schema#Classifier.Character> ;
.
<http://rdf.cdisc.org/std/adamig-1-0#Column.ADSL.TRxxSDTM>
  rdf:type mms:Column ;
  mms:context <http://rdf.cdisc.org/std/adamig-1-0#ADSL.TrialDateVariables> ;
  mms:dataElementDescription "Datetime of first exposure to treatment in period xx. TRxxSDT and/or TRxxSDTM are required in trial designs where multiple treatments are given to the same subject, such as a crossover design."^^xsd:string ;
  mms:dataElementLabel "Datetime of First Exposure in Period xx"^^xsd:string ;
  mms:dataElementName "TRxxSDTM"^^xsd:string ;
  mms:dataElementType "xsd:integer"^^xsd:anySimpleType ;
  mms:ordinal "46"^^xsd:positiveInteger ;
  cdiscs:dataElementCompliance <http://rdf.cdisc.org/std/adamig-1-0#Classifier.ConditionalVariable> ;
  cdiscs:dataElementType <http://rdf.cdisc.org/std/schema#Classifier.Numeric> ;
.
<http://rdf.cdisc.org/std/adamig-1-0#Column.ADSL.TRxxSTM>
  rdf:type mms:Column ;
  mms:context <http://rdf.cdisc.org/std/adamig-1-0#ADSL.TrialDateVariables> ;
  mms:dataElementDescription "The starting time of exposure in period xx. TRxxSTM and/or TRxxSDTM are required in trial designs where multiple treatments are given to the same subject, such as a crossover design, and time is important to the analysis."^^xsd:string ;
  mms:dataElementLabel "Time of First Exposure in Period xx"^^xsd:string ;
  mms:dataElementName "TRxxSTM"^^xsd:string ;
  mms:dataElementType "xsd:integer"^^xsd:anySimpleType ;
  mms:ordinal "45"^^xsd:positiveInteger ;
  cdiscs:dataElementCompliance <http://rdf.cdisc.org/std/adamig-1-0#Classifier.ConditionalVariable> ;
  cdiscs:dataElementType <http://rdf.cdisc.org/std/schema#Classifier.Numeric> ;
.
<http://rdf.cdisc.org/std/adamig-1-0#Column.ADSL.TRxxSTMF>
  rdf:type mms:Column ;
  mms:context <http://rdf.cdisc.org/std/adamig-1-0#ADSL.TrialDateVariables> ;
  mms:dataElementDescription "The level of imputation of time of first exposure in period xx. See General Timing Variable Convention #7."^^xsd:string ;
  mms:dataElementLabel "Time 1st Exposure Period xx Imput. Flag"^^xsd:string ;
  mms:dataElementName "TRxxSTMF"^^xsd:string ;
  mms:dataElementType "xsd:string"^^xsd:anySimpleType ;
  mms:dataElementValueDomain adamct:C81226 ;
  mms:ordinal "48"^^xsd:positiveInteger ;
  cdiscs:controlledTermsOrFormat "(TIMEFL)"^^xsd:string ;
  cdiscs:dataElementCompliance <http://rdf.cdisc.org/std/adamig-1-0#Classifier.ConditionalVariable> ;
  cdiscs:dataElementType <http://rdf.cdisc.org/std/schema#Classifier.Character> ;
.
<http://rdf.cdisc.org/std/adamig-1-0#Column.ADSL.USUBJID>
  rdf:type mms:Column ;
  mms:context <http://rdf.cdisc.org/std/adamig-1-0#ADSL.StudyIdentifierVariables> ;
  mms:dataElementDescription "Must be identical to the SDTM variables DM.STUDYID, DM.USUBJID, DM.SUBJID and DM.SITEID."^^xsd:string ;
  mms:dataElementLabel "Unique Subject Identifier"^^xsd:string ;
  mms:dataElementName "USUBJID"^^xsd:string ;
  mms:dataElementType "xsd:string"^^xsd:anySimpleType ;
  mms:ordinal "2"^^xsd:positiveInteger ;
  cdiscs:dataElementCompliance <http://rdf.cdisc.org/std/adamig-1-0#Classifier.RequiredVariable> ;
  cdiscs:dataElementType <http://rdf.cdisc.org/std/schema#Classifier.Character> ;
.
<http://rdf.cdisc.org/std/adamig-1-0#Column.BDS.ABLFL>
  rdf:type mms:Column ;
  mms:context <http://rdf.cdisc.org/std/adamig-1-0#BDS.IndicatorVariables> ;
  mms:dataElementDescription "Character indicator to identify the baseline record for each parameter, or if there is more than one baseline definition, for each parameter and baseline type (BASETYPE). See BASETYPE in Table 3.2.4.1. ABLFL is required if BASE is present in the dataset. A baseline record may be derived (e.g., it may be an average), in which case DTYPE must also be populated. If BASE is populated for a parameter, and BASE is non-null for a subject for that parameter, then there must be a record flagged by ABLFL for that subject and parameter."^^xsd:string ;
  mms:dataElementLabel "Baseline Record Flag"^^xsd:string ;
  mms:dataElementName "ABLFL"^^xsd:string ;
  mms:dataElementType "xsd:string"^^xsd:anySimpleType ;
  mms:ordinal "110"^^xsd:positiveInteger ;
  cdiscs:controlledTermsOrFormat "Y"^^xsd:string ;
  cdiscs:dataElementCompliance <http://rdf.cdisc.org/std/adamig-1-0#Classifier.ConditionalVariable> ;
  cdiscs:dataElementType <http://rdf.cdisc.org/std/schema#Classifier.Character> ;
.
<http://rdf.cdisc.org/std/adamig-1-0#Column.BDS.ABLFN>
  rdf:type mms:Column ;
  mms:context <http://rdf.cdisc.org/std/adamig-1-0#BDS.IndicatorVariables> ;
  mms:dataElementDescription "Numeric indicator to identify the baseline record for each parameter, or if there is more than one baseline definition, for each parameter and baseline type (BASETYPE)."^^xsd:string ;
  mms:dataElementLabel "Baseline Record Flag (N)"^^xsd:string ;
  mms:dataElementName "ABLFN"^^xsd:string ;
  mms:dataElementType "xsd:positiveInteger"^^xsd:anySimpleType ;
  mms:ordinal "111"^^xsd:positiveInteger ;
  cdiscs:controlledTermsOrFormat "1"^^xsd:string ;
  cdiscs:dataElementCompliance <http://rdf.cdisc.org/std/adamig-1-0#Classifier.PermissibleVariable> ;
  cdiscs:dataElementType <http://rdf.cdisc.org/std/schema#Classifier.Numeric> ;
.
<http://rdf.cdisc.org/std/adamig-1-0#Column.BDS.ADT>
  rdf:type mms:Column ;
  mms:context <http://rdf.cdisc.org/std/adamig-1-0#BDS.TimingVariables> ;
  mms:dataElementDescription "The date associated with AVAL and/or AVALC in numeric format."^^xsd:string ;
  mms:dataElementLabel "Analysis Date"^^xsd:string ;
  mms:dataElementName "ADT"^^xsd:string ;
  mms:dataElementType "xsd:integer"^^xsd:anySimpleType ;
  mms:ordinal "13"^^xsd:positiveInteger ;
  cdiscs:dataElementCompliance <http://rdf.cdisc.org/std/adamig-1-0#Classifier.PermissibleVariable> ;
  cdiscs:dataElementType <http://rdf.cdisc.org/std/schema#Classifier.Numeric> ;
.
<http://rdf.cdisc.org/std/adamig-1-0#Column.BDS.ADTF>
  rdf:type mms:Column ;
  mms:context <http://rdf.cdisc.org/std/adamig-1-0#BDS.TimingVariables> ;
  mms:dataElementDescription "The level of imputation of ADT based on the source SDTM DTC variable. See General Timing Variable Convention #6."^^xsd:string ;
  mms:dataElementLabel "Analysis Date Imputation Flag"^^xsd:string ;
  mms:dataElementName "ADTF"^^xsd:string ;
  mms:dataElementType "xsd:string"^^xsd:anySimpleType ;
  mms:dataElementValueDomain adamct:C81223 ;
  mms:ordinal "17"^^xsd:positiveInteger ;
  cdiscs:controlledTermsOrFormat "(DATEFL)"^^xsd:string ;
  cdiscs:dataElementCompliance <http://rdf.cdisc.org/std/adamig-1-0#Classifier.ConditionalVariable> ;
  cdiscs:dataElementType <http://rdf.cdisc.org/std/schema#Classifier.Character> ;
.
<http://rdf.cdisc.org/std/adamig-1-0#Column.BDS.ADTM>
  rdf:type mms:Column ;
  mms:context <http://rdf.cdisc.org/std/adamig-1-0#BDS.TimingVariables> ;
  mms:dataElementDescription "The date/time associated with AVAL and/or AVALC in numeric format."^^xsd:string ;
  mms:dataElementLabel "Analysis Date/Time"^^xsd:string ;
  mms:dataElementName "ADTM"^^xsd:string ;
  mms:dataElementType "xsd:integer"^^xsd:anySimpleType ;
  mms:ordinal "15"^^xsd:positiveInteger ;
  cdiscs:dataElementCompliance <http://rdf.cdisc.org/std/adamig-1-0#Classifier.PermissibleVariable> ;
  cdiscs:dataElementType <http://rdf.cdisc.org/std/schema#Classifier.Numeric> ;
.
<http://rdf.cdisc.org/std/adamig-1-0#Column.BDS.ADY>
  rdf:type mms:Column ;
  mms:context <http://rdf.cdisc.org/std/adamig-1-0#BDS.TimingVariables> ;
  mms:dataElementDescription "The relative day of AVAL and/or AVALC. The number of days from a reference date (not necessarily DM.RFSTDTC) to ADT. The reference date should be indicated in the variable-level metadata for ADY and the reference date should be included as a variable in the given analysis dataset or alternatively in ADSL."^^xsd:string ;
  mms:dataElementLabel "Analysis Relative Day"^^xsd:string ;
  mms:dataElementName "ADY"^^xsd:string ;
  mms:dataElementType "xsd:integer"^^xsd:anySimpleType ;
  mms:ordinal "16"^^xsd:positiveInteger ;
  cdiscs:dataElementCompliance <http://rdf.cdisc.org/std/adamig-1-0#Classifier.PermissibleVariable> ;
  cdiscs:dataElementType <http://rdf.cdisc.org/std/schema#Classifier.Numeric> ;
.
<http://rdf.cdisc.org/std/adamig-1-0#Column.BDS.AENDT>
  rdf:type mms:Column ;
  mms:context <http://rdf.cdisc.org/std/adamig-1-0#BDS.TimingVariables> ;
  mms:dataElementDescription "The end date associated with AVAL and/or AVALC. See also ASTDT."^^xsd:string ;
  mms:dataElementLabel "Analysis End Date"^^xsd:string ;
  mms:dataElementName "AENDT"^^xsd:string ;
  mms:dataElementType "xsd:integer"^^xsd:anySimpleType ;
  mms:ordinal "25"^^xsd:positiveInteger ;
  cdiscs:dataElementCompliance <http://rdf.cdisc.org/std/adamig-1-0#Classifier.PermissibleVariable> ;
  cdiscs:dataElementType <http://rdf.cdisc.org/std/schema#Classifier.Numeric> ;
.
<http://rdf.cdisc.org/std/adamig-1-0#Column.BDS.AENDTF>
  rdf:type mms:Column ;
  mms:context <http://rdf.cdisc.org/std/adamig-1-0#BDS.TimingVariables> ;
  mms:dataElementDescription "The level of imputation of AENDT based on the source SDTM DTC variable. See General Timing Variable Convention #6."^^xsd:string ;
  mms:dataElementLabel "Analysis End Date Imputation Flag"^^xsd:string ;
  mms:dataElementName "AENDTF"^^xsd:string ;
  mms:dataElementType "xsd:string"^^xsd:anySimpleType ;
  mms:dataElementValueDomain adamct:C81223 ;
  mms:ordinal "29"^^xsd:positiveInteger ;
  cdiscs:controlledTermsOrFormat "(DATEFL)"^^xsd:string ;
  cdiscs:dataElementCompliance <http://rdf.cdisc.org/std/adamig-1-0#Classifier.ConditionalVariable> ;
  cdiscs:dataElementType <http://rdf.cdisc.org/std/schema#Classifier.Character> ;
.
<http://rdf.cdisc.org/std/adamig-1-0#Column.BDS.AENDTM>
  rdf:type mms:Column ;
  mms:context <http://rdf.cdisc.org/std/adamig-1-0#BDS.TimingVariables> ;
  mms:dataElementDescription "The end datetime associated with AVAL and/or AVALC. See also ASTDTM."^^xsd:string ;
  mms:dataElementLabel "Analysis End Date/Time"^^xsd:string ;
  mms:dataElementName "AENDTM"^^xsd:string ;
  mms:dataElementType "xsd:integer"^^xsd:anySimpleType ;
  mms:ordinal "27"^^xsd:positiveInteger ;
  cdiscs:dataElementCompliance <http://rdf.cdisc.org/std/adamig-1-0#Classifier.PermissibleVariable> ;
  cdiscs:dataElementType <http://rdf.cdisc.org/std/schema#Classifier.Numeric> ;
.
<http://rdf.cdisc.org/std/adamig-1-0#Column.BDS.AENDY>
  rdf:type mms:Column ;
  mms:context <http://rdf.cdisc.org/std/adamig-1-0#BDS.TimingVariables> ;
  mms:dataElementDescription "The number of days from a reference date (not necessarily DM.RFSTDTC) to AENDT. See also ASTDY."^^xsd:string ;
  mms:dataElementLabel "Analysis End Relative Day"^^xsd:string ;
  mms:dataElementName "AENDY"^^xsd:string ;
  mms:dataElementType "xsd:integer"^^xsd:anySimpleType ;
  mms:ordinal "28"^^xsd:positiveInteger ;
  cdiscs:dataElementCompliance <http://rdf.cdisc.org/std/adamig-1-0#Classifier.PermissibleVariable> ;
  cdiscs:dataElementType <http://rdf.cdisc.org/std/schema#Classifier.Numeric> ;
.
<http://rdf.cdisc.org/std/adamig-1-0#Column.BDS.AENTM>
  rdf:type mms:Column ;
  mms:context <http://rdf.cdisc.org/std/adamig-1-0#BDS.TimingVariables> ;
  mms:dataElementDescription "The end time associated with AVAL and/or AVALC. See also ASTTM."^^xsd:string ;
  mms:dataElementLabel "Analysis End Time"^^xsd:string ;
  mms:dataElementName "AENTM"^^xsd:string ;
  mms:dataElementType "xsd:integer"^^xsd:anySimpleType ;
  mms:ordinal "26"^^xsd:positiveInteger ;
  cdiscs:dataElementCompliance <http://rdf.cdisc.org/std/adamig-1-0#Classifier.PermissibleVariable> ;
  cdiscs:dataElementType <http://rdf.cdisc.org/std/schema#Classifier.Numeric> ;
.
<http://rdf.cdisc.org/std/adamig-1-0#Column.BDS.AENTMF>
  rdf:type mms:Column ;
  mms:context <http://rdf.cdisc.org/std/adamig-1-0#BDS.TimingVariables> ;
  mms:dataElementDescription "The level of imputation of AENTM based on the source SDTM DTC variable. See General Timing Variable Convention #7."^^xsd:string ;
  mms:dataElementLabel "Analysis End Time Imputation Flag"^^xsd:string ;
  mms:dataElementName "AENTMF"^^xsd:string ;
  mms:dataElementType "xsd:string"^^xsd:anySimpleType ;
  mms:dataElementValueDomain adamct:C81226 ;
  mms:ordinal "30"^^xsd:positiveInteger ;
  cdiscs:controlledTermsOrFormat "(TIMEFL)"^^xsd:string ;
  cdiscs:dataElementCompliance <http://rdf.cdisc.org/std/adamig-1-0#Classifier.ConditionalVariable> ;
  cdiscs:dataElementType <http://rdf.cdisc.org/std/schema#Classifier.Character> ;
.
<http://rdf.cdisc.org/std/adamig-1-0#Column.BDS.ANLzzFL>
  rdf:type mms:Column ;
  mms:context <http://rdf.cdisc.org/std/adamig-1-0#BDS.IndicatorVariables> ;
  mms:dataElementDescription "ANLzzFL is a conditionally required flag to be used in addition to other selection variables when the other selection variables in combination are insufficient to identify the exact set of records used for one or more analyses. Often one ANLzzFL will serve to support the accurate selection of records for more than one analysis. When one is defining the set of records used in a particular analysis or family of analyses, ANLzzFL is supplemental to, and is intended to be used in conjunction with, other selection variables, such as subject-level, parameter-level and record-level population flags, AVISIT, DTYPE, grouping variables such as SITEGRy, and others. Every record selection algorithm \"zz\" (i.e., every algorithm for populating an ANLzzFL) must be defined in variable metadata. When the set of records that the algorithm \"zz\" operates on is pre-filtered by application of other criteria, such as a record-level population flag, then the selection algorithm definition in the metadata must so specify. Note that the ANLzzFL value of Y indicates that the record fulfilled the requirements of the algorithm, but does not necessarily imply that the record was actually used in one or more analyses, as whether or not a record is used also depends on the other selection variables applied. The ANLzzFL flag is useful in many circumstances; an example is when there is more than one record for an analysis timepoint within a subject and parameter, as it can be used to identify the record chosen to represent the timepoint for an analysis. \"zz\" is an index for a record selection algorithm, such as \"record closest to target relative day for the AVISIT, with ties broken by the latest record, for each AVISIT within <list of AVISITS>.\""^^xsd:string ;
  mms:dataElementLabel "Analysis Record Flag zz"^^xsd:string ;
  mms:dataElementName "ANLzzFL"^^xsd:string ;
  mms:dataElementType "xsd:string"^^xsd:anySimpleType ;
  mms:ordinal "112"^^xsd:positiveInteger ;
  cdiscs:controlledTermsOrFormat "Y"^^xsd:string ;
  cdiscs:dataElementCompliance <http://rdf.cdisc.org/std/adamig-1-0#Classifier.ConditionalVariable> ;
  cdiscs:dataElementType <http://rdf.cdisc.org/std/schema#Classifier.Character> ;
.
<http://rdf.cdisc.org/std/adamig-1-0#Column.BDS.ANLzzFN>
  rdf:type mms:Column ;
  mms:context <http://rdf.cdisc.org/std/adamig-1-0#BDS.IndicatorVariables> ;
  mms:dataElementDescription "Numeric version of ANLzzFL."^^xsd:string ;
  mms:dataElementLabel "Analyzed Record Flag zz (N)"^^xsd:string ;
  mms:dataElementName "ANLzzFN"^^xsd:string ;
  mms:dataElementType "xsd:positiveInteger"^^xsd:anySimpleType ;
  mms:ordinal "113"^^xsd:positiveInteger ;
  cdiscs:controlledTermsOrFormat "1"^^xsd:string ;
  cdiscs:dataElementCompliance <http://rdf.cdisc.org/std/adamig-1-0#Classifier.PermissibleVariable> ;
  cdiscs:dataElementType <http://rdf.cdisc.org/std/schema#Classifier.Numeric> ;
.
<http://rdf.cdisc.org/std/adamig-1-0#Column.BDS.ANRHI>
  rdf:type mms:Column ;
  mms:context <http://rdf.cdisc.org/std/adamig-1-0#BDS.LabRelatedAnalysisVariables> ;
  mms:dataElementDescription "Normal range upper limit for analysis; may be based on SDTM --NRHI or an imputed or assigned value."^^xsd:string ;
  mms:dataElementLabel "Analysis Normal Range Upper Limit"^^xsd:string ;
  mms:dataElementName "ANRHI"^^xsd:string ;
  mms:dataElementType "xsd:string"^^xsd:anySimpleType ;
  mms:ordinal "107"^^xsd:positiveInteger ;
  cdiscs:dataElementCompliance <http://rdf.cdisc.org/std/adamig-1-0#Classifier.PermissibleVariable> ;
  cdiscs:dataElementType <http://rdf.cdisc.org/std/schema#Classifier.Character> ;
.
<http://rdf.cdisc.org/std/adamig-1-0#Column.BDS.ANRIND>
  rdf:type mms:Column ;
  mms:context <http://rdf.cdisc.org/std/adamig-1-0#BDS.LabRelatedAnalysisVariables> ;
  mms:dataElementDescription "Normal range indicator for analysis; may be based on SDTM --NRIND or an imputed or assigned value."^^xsd:string ;
  mms:dataElementLabel "Analysis Reference Range Indicator"^^xsd:string ;
  mms:dataElementName "ANRIND"^^xsd:string ;
  mms:dataElementType "xsd:string"^^xsd:anySimpleType ;
  mms:ordinal "104"^^xsd:positiveInteger ;
  cdiscs:dataElementCompliance <http://rdf.cdisc.org/std/adamig-1-0#Classifier.PermissibleVariable> ;
  cdiscs:dataElementType <http://rdf.cdisc.org/std/schema#Classifier.Character> ;
.
<http://rdf.cdisc.org/std/adamig-1-0#Column.BDS.ANRLO>
  rdf:type mms:Column ;
  mms:context <http://rdf.cdisc.org/std/adamig-1-0#BDS.LabRelatedAnalysisVariables> ;
  mms:dataElementDescription "Normal range lower limit for analysis; may be based on SDTM --NRLO or an imputed or assigned value."^^xsd:string ;
  mms:dataElementLabel "Analysis Normal Range Lower Limit"^^xsd:string ;
  mms:dataElementName "ANRLO"^^xsd:string ;
  mms:dataElementType "xsd:string"^^xsd:anySimpleType ;
  mms:ordinal "106"^^xsd:positiveInteger ;
  cdiscs:dataElementCompliance <http://rdf.cdisc.org/std/adamig-1-0#Classifier.PermissibleVariable> ;
  cdiscs:dataElementType <http://rdf.cdisc.org/std/schema#Classifier.Character> ;
.
<http://rdf.cdisc.org/std/adamig-1-0#Column.BDS.APEREDT>
  rdf:type mms:Column ;
  mms:context <http://rdf.cdisc.org/std/adamig-1-0#BDS.TimingVariables> ;
  mms:dataElementDescription "The ending date for the period defined by APERIOD."^^xsd:string ;
  mms:dataElementLabel "Period End Date"^^xsd:string ;
  mms:dataElementName "APEREDT"^^xsd:string ;
  mms:dataElementType "xsd:integer"^^xsd:anySimpleType ;
  mms:ordinal "46"^^xsd:positiveInteger ;
  cdiscs:dataElementCompliance <http://rdf.cdisc.org/std/adamig-1-0#Classifier.PermissibleVariable> ;
  cdiscs:dataElementType <http://rdf.cdisc.org/std/schema#Classifier.Numeric> ;
.
<http://rdf.cdisc.org/std/adamig-1-0#Column.BDS.APEREDTF>
  rdf:type mms:Column ;
  mms:context <http://rdf.cdisc.org/std/adamig-1-0#BDS.TimingVariables> ;
  mms:dataElementDescription "The level of imputation of APEREDT based on the source SDTM DTC variable. See General Timing Variable Convention #6."^^xsd:string ;
  mms:dataElementLabel "Period End Date Imput. Flag"^^xsd:string ;
  mms:dataElementName "APEREDTF"^^xsd:string ;
  mms:dataElementType "xsd:string"^^xsd:anySimpleType ;
  mms:dataElementValueDomain adamct:C81223 ;
  mms:ordinal "49"^^xsd:positiveInteger ;
  cdiscs:controlledTermsOrFormat "(DATEFL)"^^xsd:string ;
  cdiscs:dataElementCompliance <http://rdf.cdisc.org/std/adamig-1-0#Classifier.ConditionalVariable> ;
  cdiscs:dataElementType <http://rdf.cdisc.org/std/schema#Classifier.Character> ;
.
<http://rdf.cdisc.org/std/adamig-1-0#Column.BDS.APEREDTM>
  rdf:type mms:Column ;
  mms:context <http://rdf.cdisc.org/std/adamig-1-0#BDS.TimingVariables> ;
  mms:dataElementDescription "The ending datetime for the period defined by APERIOD."^^xsd:string ;
  mms:dataElementLabel "Period End Date/Time"^^xsd:string ;
  mms:dataElementName "APEREDTM"^^xsd:string ;
  mms:dataElementType "xsd:integer"^^xsd:anySimpleType ;
  mms:ordinal "48"^^xsd:positiveInteger ;
  cdiscs:dataElementCompliance <http://rdf.cdisc.org/std/adamig-1-0#Classifier.PermissibleVariable> ;
  cdiscs:dataElementType <http://rdf.cdisc.org/std/schema#Classifier.Numeric> ;
.
<http://rdf.cdisc.org/std/adamig-1-0#Column.BDS.APERETM>
  rdf:type mms:Column ;
  mms:context <http://rdf.cdisc.org/std/adamig-1-0#BDS.TimingVariables> ;
  mms:dataElementDescription "The ending time for the period defined by APERIOD."^^xsd:string ;
  mms:dataElementLabel "Period End Time"^^xsd:string ;
  mms:dataElementName "APERETM"^^xsd:string ;
  mms:dataElementType "xsd:integer"^^xsd:anySimpleType ;
  mms:ordinal "47"^^xsd:positiveInteger ;
  cdiscs:dataElementCompliance <http://rdf.cdisc.org/std/adamig-1-0#Classifier.PermissibleVariable> ;
  cdiscs:dataElementType <http://rdf.cdisc.org/std/schema#Classifier.Numeric> ;
.
<http://rdf.cdisc.org/std/adamig-1-0#Column.BDS.APERETMF>
  rdf:type mms:Column ;
  mms:context <http://rdf.cdisc.org/std/adamig-1-0#BDS.TimingVariables> ;
  mms:dataElementDescription "The level of imputation of APERETM based on the source SDTM DTC variable. See General Timing Variable Convention #7."^^xsd:string ;
  mms:dataElementLabel "Period End Time Imput. Flag"^^xsd:string ;
  mms:dataElementName "APERETMF"^^xsd:string ;
  mms:dataElementType "xsd:string"^^xsd:anySimpleType ;
  mms:dataElementValueDomain adamct:C81226 ;
  mms:ordinal "50"^^xsd:positiveInteger ;
  cdiscs:controlledTermsOrFormat "(TIMEFL)"^^xsd:string ;
  cdiscs:dataElementCompliance <http://rdf.cdisc.org/std/adamig-1-0#Classifier.ConditionalVariable> ;
  cdiscs:dataElementType <http://rdf.cdisc.org/std/schema#Classifier.Character> ;
.
<http://rdf.cdisc.org/std/adamig-1-0#Column.BDS.APERIOD>
  rdf:type mms:Column ;
  mms:context <http://rdf.cdisc.org/std/adamig-1-0#BDS.TimingVariables> ;
  mms:dataElementDescription "The numeric value characterizing the period to which the record belongs. The value of APERIOD must be consistent with the xx value in TRTxxP, TRTxxA, and all variables whose names begin with TRxx and APxx."^^xsd:string ;
  mms:dataElementLabel "Period"^^xsd:string ;
  mms:dataElementName "APERIOD"^^xsd:string ;
  mms:dataElementType "xsd:integer"^^xsd:anySimpleType ;
  mms:ordinal "36"^^xsd:positiveInteger ;
  cdiscs:dataElementCompliance <http://rdf.cdisc.org/std/adamig-1-0#Classifier.PermissibleVariable> ;
  cdiscs:dataElementType <http://rdf.cdisc.org/std/schema#Classifier.Numeric> ;
.
<http://rdf.cdisc.org/std/adamig-1-0#Column.BDS.APERIODC>
  rdf:type mms:Column ;
  mms:context <http://rdf.cdisc.org/std/adamig-1-0#BDS.TimingVariables> ;
  mms:dataElementDescription "Text characterizing to which period the record belongs. One-to-one map to APERIOD."^^xsd:string ;
  mms:dataElementLabel "Period (C)"^^xsd:string ;
  mms:dataElementName "APERIODC"^^xsd:string ;
  mms:dataElementType "xsd:string"^^xsd:anySimpleType ;
  mms:ordinal "37"^^xsd:positiveInteger ;
  cdiscs:dataElementCompliance <http://rdf.cdisc.org/std/adamig-1-0#Classifier.PermissibleVariable> ;
  cdiscs:dataElementType <http://rdf.cdisc.org/std/schema#Classifier.Character> ;
.
<http://rdf.cdisc.org/std/adamig-1-0#Column.BDS.APERSDT>
  rdf:type mms:Column ;
  mms:context <http://rdf.cdisc.org/std/adamig-1-0#BDS.TimingVariables> ;
  mms:dataElementDescription "The starting date for the period defined by APERIOD."^^xsd:string ;
  mms:dataElementLabel "Period Start Date"^^xsd:string ;
  mms:dataElementName "APERSDT"^^xsd:string ;
  mms:dataElementType "xsd:integer"^^xsd:anySimpleType ;
  mms:ordinal "41"^^xsd:positiveInteger ;
  cdiscs:dataElementCompliance <http://rdf.cdisc.org/std/adamig-1-0#Classifier.PermissibleVariable> ;
  cdiscs:dataElementType <http://rdf.cdisc.org/std/schema#Classifier.Numeric> ;
.
<http://rdf.cdisc.org/std/adamig-1-0#Column.BDS.APERSDTF>
  rdf:type mms:Column ;
  mms:context <http://rdf.cdisc.org/std/adamig-1-0#BDS.TimingVariables> ;
  mms:dataElementDescription "The level of imputation of APERSDT based on the source SDTM DTC variable. See General Timing Variable Convention #6."^^xsd:string ;
  mms:dataElementLabel "Period Start Date Imput. Flag"^^xsd:string ;
  mms:dataElementName "APERSDTF"^^xsd:string ;
  mms:dataElementType "xsd:string"^^xsd:anySimpleType ;
  mms:dataElementValueDomain adamct:C81223 ;
  mms:ordinal "44"^^xsd:positiveInteger ;
  cdiscs:controlledTermsOrFormat "(DATEFL)"^^xsd:string ;
  cdiscs:dataElementCompliance <http://rdf.cdisc.org/std/adamig-1-0#Classifier.ConditionalVariable> ;
  cdiscs:dataElementType <http://rdf.cdisc.org/std/schema#Classifier.Character> ;
.
<http://rdf.cdisc.org/std/adamig-1-0#Column.BDS.APERSDTM>
  rdf:type mms:Column ;
  mms:context <http://rdf.cdisc.org/std/adamig-1-0#BDS.TimingVariables> ;
  mms:dataElementDescription "The starting datetime for the period defined by APERIOD."^^xsd:string ;
  mms:dataElementLabel "Period Start Date/Time"^^xsd:string ;
  mms:dataElementName "APERSDTM"^^xsd:string ;
  mms:dataElementType "xsd:integer"^^xsd:anySimpleType ;
  mms:ordinal "43"^^xsd:positiveInteger ;
  cdiscs:dataElementCompliance <http://rdf.cdisc.org/std/adamig-1-0#Classifier.PermissibleVariable> ;
  cdiscs:dataElementType <http://rdf.cdisc.org/std/schema#Classifier.Numeric> ;
.
<http://rdf.cdisc.org/std/adamig-1-0#Column.BDS.APERSTM>
  rdf:type mms:Column ;
  mms:context <http://rdf.cdisc.org/std/adamig-1-0#BDS.TimingVariables> ;
  mms:dataElementDescription "The starting time for the period defined by APERIOD."^^xsd:string ;
  mms:dataElementLabel "Period Start Time"^^xsd:string ;
  mms:dataElementName "APERSTM"^^xsd:string ;
  mms:dataElementType "xsd:integer"^^xsd:anySimpleType ;
  mms:ordinal "42"^^xsd:positiveInteger ;
  cdiscs:dataElementCompliance <http://rdf.cdisc.org/std/adamig-1-0#Classifier.PermissibleVariable> ;
  cdiscs:dataElementType <http://rdf.cdisc.org/std/schema#Classifier.Numeric> ;
.
<http://rdf.cdisc.org/std/adamig-1-0#Column.BDS.APERSTMF>
  rdf:type mms:Column ;
  mms:context <http://rdf.cdisc.org/std/adamig-1-0#BDS.TimingVariables> ;
  mms:dataElementDescription "The level of imputation of APERSTM based on the source SDTM DTC variable. See General Timing Variable Convention #7."^^xsd:string ;
  mms:dataElementLabel "Period Start Time Imput. Flag"^^xsd:string ;
  mms:dataElementName "APERSTMF"^^xsd:string ;
  mms:dataElementType "xsd:string"^^xsd:anySimpleType ;
  mms:dataElementValueDomain adamct:C81226 ;
  mms:ordinal "45"^^xsd:positiveInteger ;
  cdiscs:controlledTermsOrFormat "(TIMEFL)"^^xsd:string ;
  cdiscs:dataElementCompliance <http://rdf.cdisc.org/std/adamig-1-0#Classifier.ConditionalVariable> ;
  cdiscs:dataElementType <http://rdf.cdisc.org/std/schema#Classifier.Character> ;
.
<http://rdf.cdisc.org/std/adamig-1-0#Column.BDS.APHASE>
  rdf:type mms:Column ;
  mms:context <http://rdf.cdisc.org/std/adamig-1-0#BDS.TimingVariables> ;
  mms:dataElementDescription "Generally, a higher-level categorization of APERIOD. Does not replace APERIOD, because APERIOD provides the indexing for the TRxx and APxx variables."^^xsd:string ;
  mms:dataElementLabel "Phase"^^xsd:string ;
  mms:dataElementName "APHASE"^^xsd:string ;
  mms:dataElementType "xsd:string"^^xsd:anySimpleType ;
  mms:ordinal "38"^^xsd:positiveInteger ;
  cdiscs:dataElementCompliance <http://rdf.cdisc.org/std/adamig-1-0#Classifier.PermissibleVariable> ;
  cdiscs:dataElementType <http://rdf.cdisc.org/std/schema#Classifier.Character> ;
.
<http://rdf.cdisc.org/std/adamig-1-0#Column.BDS.ARELTM>
  rdf:type mms:Column ;
  mms:context <http://rdf.cdisc.org/std/adamig-1-0#BDS.TimingVariables> ;
  mms:dataElementDescription "The time relative to an anchor time. When ARELTM is present, the anchor time variable and ARELTMU must also be included in the dataset, and the anchor time variable must be identified in the metadata for ARELTM."^^xsd:string ;
  mms:dataElementLabel "Analysis Relative Time"^^xsd:string ;
  mms:dataElementName "ARELTM"^^xsd:string ;
  mms:dataElementType "xsd:integer"^^xsd:anySimpleType ;
  mms:ordinal "39"^^xsd:positiveInteger ;
  cdiscs:dataElementCompliance <http://rdf.cdisc.org/std/adamig-1-0#Classifier.PermissibleVariable> ;
  cdiscs:dataElementType <http://rdf.cdisc.org/std/schema#Classifier.Numeric> ;
.
<http://rdf.cdisc.org/std/adamig-1-0#Column.BDS.ARELTMU>
  rdf:type mms:Column ;
  mms:context <http://rdf.cdisc.org/std/adamig-1-0#BDS.TimingVariables> ;
  mms:dataElementDescription "The units of ARELTM. For example, \"HOURS\" or \"MINUTES.\" ARELTMU is required if ARELTM is present."^^xsd:string ;
  mms:dataElementLabel "Analysis Relative Time Unit"^^xsd:string ;
  mms:dataElementName "ARELTMU"^^xsd:string ;
  mms:dataElementType "xsd:string"^^xsd:anySimpleType ;
  mms:ordinal "40"^^xsd:positiveInteger ;
  cdiscs:dataElementCompliance <http://rdf.cdisc.org/std/adamig-1-0#Classifier.ConditionalVariable> ;
  cdiscs:dataElementType <http://rdf.cdisc.org/std/schema#Classifier.Character> ;
.
<http://rdf.cdisc.org/std/adamig-1-0#Column.BDS.ASTDT>
  rdf:type mms:Column ;
  mms:context <http://rdf.cdisc.org/std/adamig-1-0#BDS.TimingVariables> ;
  mms:dataElementDescription "The start date associated with AVAL and/or AVALC. ASTDT and AENDT may be useful for traceability when AVAL summarizes data collected over an interval of time, or when AVAL is a duration."^^xsd:string ;
  mms:dataElementLabel "Analysis Start Date"^^xsd:string ;
  mms:dataElementName "ASTDT"^^xsd:string ;
  mms:dataElementType "xsd:integer"^^xsd:anySimpleType ;
  mms:ordinal "19"^^xsd:positiveInteger ;
  cdiscs:dataElementCompliance <http://rdf.cdisc.org/std/adamig-1-0#Classifier.PermissibleVariable> ;
  cdiscs:dataElementType <http://rdf.cdisc.org/std/schema#Classifier.Numeric> ;
.
<http://rdf.cdisc.org/std/adamig-1-0#Column.BDS.ASTDTF>
  rdf:type mms:Column ;
  mms:context <http://rdf.cdisc.org/std/adamig-1-0#BDS.TimingVariables> ;
  mms:dataElementDescription "The level of imputation of ASTDT based on the source SDTM DTC variable. See General Timing Variable Convention #6."^^xsd:string ;
  mms:dataElementLabel "Analysis Start Date Imputation Flag"^^xsd:string ;
  mms:dataElementName "ASTDTF"^^xsd:string ;
  mms:dataElementType "xsd:string"^^xsd:anySimpleType ;
  mms:dataElementValueDomain adamct:C81223 ;
  mms:ordinal "23"^^xsd:positiveInteger ;
  cdiscs:controlledTermsOrFormat "(DATEFL)"^^xsd:string ;
  cdiscs:dataElementCompliance <http://rdf.cdisc.org/std/adamig-1-0#Classifier.ConditionalVariable> ;
  cdiscs:dataElementType <http://rdf.cdisc.org/std/schema#Classifier.Character> ;
.
<http://rdf.cdisc.org/std/adamig-1-0#Column.BDS.ASTDTM>
  rdf:type mms:Column ;
  mms:context <http://rdf.cdisc.org/std/adamig-1-0#BDS.TimingVariables> ;
  mms:dataElementDescription "The start datetime associated with AVAL and/or AVALC. ASTDTM and AENDTM may be useful for traceability when AVAL summarizes data collected over an interval of time, or when AVAL is a duration."^^xsd:string ;
  mms:dataElementLabel "Analysis Start Date/Time"^^xsd:string ;
  mms:dataElementName "ASTDTM"^^xsd:string ;
  mms:dataElementType "xsd:integer"^^xsd:anySimpleType ;
  mms:ordinal "21"^^xsd:positiveInteger ;
  cdiscs:dataElementCompliance <http://rdf.cdisc.org/std/adamig-1-0#Classifier.PermissibleVariable> ;
  cdiscs:dataElementType <http://rdf.cdisc.org/std/schema#Classifier.Numeric> ;
.
<http://rdf.cdisc.org/std/adamig-1-0#Column.BDS.ASTDY>
  rdf:type mms:Column ;
  mms:context <http://rdf.cdisc.org/std/adamig-1-0#BDS.TimingVariables> ;
  mms:dataElementDescription "The number of days from a reference date (not necessarily DM.RFSTDTC) to ASTDT. The reference date variable should be indicated in the variable-level metadata for ASTDY and the reference date variable should be included as a variable in an analysis dataset (typically, but not necessarily, ADSL)."^^xsd:string ;
  mms:dataElementLabel "Analysis Start Relative Day"^^xsd:string ;
  mms:dataElementName "ASTDY"^^xsd:string ;
  mms:dataElementType "xsd:integer"^^xsd:anySimpleType ;
  mms:ordinal "22"^^xsd:positiveInteger ;
  cdiscs:dataElementCompliance <http://rdf.cdisc.org/std/adamig-1-0#Classifier.PermissibleVariable> ;
  cdiscs:dataElementType <http://rdf.cdisc.org/std/schema#Classifier.Numeric> ;
.
<http://rdf.cdisc.org/std/adamig-1-0#Column.BDS.ASTTM>
  rdf:type mms:Column ;
  mms:context <http://rdf.cdisc.org/std/adamig-1-0#BDS.TimingVariables> ;
  mms:dataElementDescription "The start time associated with AVAL and/or AVALC. ASTTM and AENTM may be useful for traceability when AVAL summarizes data collected over an interval of time, or when AVAL is a duration."^^xsd:string ;
  mms:dataElementLabel "Analysis Start Time"^^xsd:string ;
  mms:dataElementName "ASTTM"^^xsd:string ;
  mms:dataElementType "xsd:integer"^^xsd:anySimpleType ;
  mms:ordinal "20"^^xsd:positiveInteger ;
  cdiscs:dataElementCompliance <http://rdf.cdisc.org/std/adamig-1-0#Classifier.PermissibleVariable> ;
  cdiscs:dataElementType <http://rdf.cdisc.org/std/schema#Classifier.Numeric> ;
.
<http://rdf.cdisc.org/std/adamig-1-0#Column.BDS.ASTTMF>
  rdf:type mms:Column ;
  mms:context <http://rdf.cdisc.org/std/adamig-1-0#BDS.TimingVariables> ;
  mms:dataElementDescription "The level of imputation of ASTTM based on the source SDTM DTC variable. See General Timing Variable Convention #7."^^xsd:string ;
  mms:dataElementLabel "Analysis Start Time Imputation Flag"^^xsd:string ;
  mms:dataElementName "ASTTMF"^^xsd:string ;
  mms:dataElementType "xsd:string"^^xsd:anySimpleType ;
  mms:dataElementValueDomain adamct:C81226 ;
  mms:ordinal "24"^^xsd:positiveInteger ;
  cdiscs:controlledTermsOrFormat "(TIMEFL)"^^xsd:string ;
  cdiscs:dataElementCompliance <http://rdf.cdisc.org/std/adamig-1-0#Classifier.ConditionalVariable> ;
  cdiscs:dataElementType <http://rdf.cdisc.org/std/schema#Classifier.Character> ;
.
<http://rdf.cdisc.org/std/adamig-1-0#Column.BDS.ATM>
  rdf:type mms:Column ;
  mms:context <http://rdf.cdisc.org/std/adamig-1-0#BDS.TimingVariables> ;
  mms:dataElementDescription "The time associated with AVAL and/or AVALC in numeric format."^^xsd:string ;
  mms:dataElementLabel "Analysis Time"^^xsd:string ;
  mms:dataElementName "ATM"^^xsd:string ;
  mms:dataElementType "xsd:integer"^^xsd:anySimpleType ;
  mms:ordinal "14"^^xsd:positiveInteger ;
  cdiscs:dataElementCompliance <http://rdf.cdisc.org/std/adamig-1-0#Classifier.PermissibleVariable> ;
  cdiscs:dataElementType <http://rdf.cdisc.org/std/schema#Classifier.Numeric> ;
.
<http://rdf.cdisc.org/std/adamig-1-0#Column.BDS.ATMF>
  rdf:type mms:Column ;
  mms:context <http://rdf.cdisc.org/std/adamig-1-0#BDS.TimingVariables> ;
  mms:dataElementDescription "The level of imputation of ATM based on the source SDTM DTC variable. See General Timing Variable Convention #7."^^xsd:string ;
  mms:dataElementLabel "Analysis Time Imputation Flag"^^xsd:string ;
  mms:dataElementName "ATMF"^^xsd:string ;
  mms:dataElementType "xsd:string"^^xsd:anySimpleType ;
  mms:dataElementValueDomain adamct:C81226 ;
  mms:ordinal "18"^^xsd:positiveInteger ;
  cdiscs:controlledTermsOrFormat "(TIMEFL)"^^xsd:string ;
  cdiscs:dataElementCompliance <http://rdf.cdisc.org/std/adamig-1-0#Classifier.ConditionalVariable> ;
  cdiscs:dataElementType <http://rdf.cdisc.org/std/schema#Classifier.Character> ;
.
<http://rdf.cdisc.org/std/adamig-1-0#Column.BDS.ATOXGR>
  rdf:type mms:Column ;
  mms:context <http://rdf.cdisc.org/std/adamig-1-0#BDS.LabRelatedAnalysisVariables> ;
  mms:dataElementDescription "Toxicity grade for analysis; may be based on SDTM --TOXGR or an imputed or assigned value."^^xsd:string ;
  mms:dataElementLabel "Analysis Toxicity Grade"^^xsd:string ;
  mms:dataElementName "ATOXGR"^^xsd:string ;
  mms:dataElementType "xsd:string"^^xsd:anySimpleType ;
  mms:ordinal "102"^^xsd:positiveInteger ;
  cdiscs:dataElementCompliance <http://rdf.cdisc.org/std/adamig-1-0#Classifier.PermissibleVariable> ;
  cdiscs:dataElementType <http://rdf.cdisc.org/std/schema#Classifier.Character> ;
.
<http://rdf.cdisc.org/std/adamig-1-0#Column.BDS.ATPT>
  rdf:type mms:Column ;
  mms:context <http://rdf.cdisc.org/std/adamig-1-0#BDS.TimingVariables> ;
  mms:dataElementDescription "The analysis time point description which is required if analysis times are derived. Timepoints are relative to ATPTREF. ATPT can be within an analysis visit (e.g., blood pressure assessments at 10 min, 20 min, and 30 min post-dose at AVISIT=Week 1) or can be unrelated to AVISIT (e.g., migraine symptoms 30 min, 60 min, and 120 min post-dose for attack 1)."^^xsd:string ;
  mms:dataElementLabel "Analysis Timepoint"^^xsd:string ;
  mms:dataElementName "ATPT"^^xsd:string ;
  mms:dataElementType "xsd:string"^^xsd:anySimpleType ;
  mms:ordinal "33"^^xsd:positiveInteger ;
  cdiscs:dataElementCompliance <http://rdf.cdisc.org/std/adamig-1-0#Classifier.PermissibleVariable> ;
  cdiscs:dataElementType <http://rdf.cdisc.org/std/schema#Classifier.Character> ;
.
<http://rdf.cdisc.org/std/adamig-1-0#Column.BDS.ATPTN>
  rdf:type mms:Column ;
  mms:context <http://rdf.cdisc.org/std/adamig-1-0#BDS.TimingVariables> ;
  mms:dataElementDescription "ATPTN provides a numeric representation of ATPT. Within the same parameter, there is a one-to-one mapping between ATPT and ATPTN."^^xsd:string ;
  mms:dataElementLabel "Analysis Timepoint (N)"^^xsd:string ;
  mms:dataElementName "ATPTN"^^xsd:string ;
  mms:dataElementType "xsd:integer"^^xsd:anySimpleType ;
  mms:ordinal "34"^^xsd:positiveInteger ;
  cdiscs:dataElementCompliance <http://rdf.cdisc.org/std/adamig-1-0#Classifier.PermissibleVariable> ;
  cdiscs:dataElementType <http://rdf.cdisc.org/std/schema#Classifier.Numeric> ;
.
<http://rdf.cdisc.org/std/adamig-1-0#Column.BDS.ATPTREF>
  rdf:type mms:Column ;
  mms:context <http://rdf.cdisc.org/std/adamig-1-0#BDS.TimingVariables> ;
  mms:dataElementDescription "Description of the fixed reference point referred to by ATPT/ATPTN."^^xsd:string ;
  mms:dataElementLabel "Analysis Timepoint Reference"^^xsd:string ;
  mms:dataElementName "ATPTREF"^^xsd:string ;
  mms:dataElementType "xsd:string"^^xsd:anySimpleType ;
  mms:ordinal "35"^^xsd:positiveInteger ;
  cdiscs:dataElementCompliance <http://rdf.cdisc.org/std/adamig-1-0#Classifier.PermissibleVariable> ;
  cdiscs:dataElementType <http://rdf.cdisc.org/std/schema#Classifier.Character> ;
.
<http://rdf.cdisc.org/std/adamig-1-0#Column.BDS.AVAL>
  rdf:type mms:Column ;
  mms:context <http://rdf.cdisc.org/std/adamig-1-0#BDS.AnalysisParameterVariables> ;
  mms:dataElementDescription "Numeric analysis value described by PARAM. *At least one of AVAL or AVALC is required."^^xsd:string ;
  mms:dataElementLabel "Analysis Value"^^xsd:string ;
  mms:dataElementName "AVAL"^^xsd:string ;
  mms:dataElementType "xsd:decimal"^^xsd:anySimpleType ;
  mms:ordinal "75"^^xsd:positiveInteger ;
  cdiscs:dataElementCompliance <http://rdf.cdisc.org/std/adamig-1-0#Classifier.RequiredVariable> ;
  cdiscs:dataElementType <http://rdf.cdisc.org/std/schema#Classifier.Numeric> ;
.
<http://rdf.cdisc.org/std/adamig-1-0#Column.BDS.AVALC>
  rdf:type mms:Column ;
  mms:context <http://rdf.cdisc.org/std/adamig-1-0#BDS.AnalysisParameterVariables> ;
  mms:dataElementDescription "*At least one of AVAL or AVALC is required. Character analysis value described by PARAM. AVALC can be a character string mapping to AVAL, but if so there must be a one-to-one map between AVAL and AVALC within a given PARAM. AVALC should not be used to categorize the values of AVAL."^^xsd:string ;
  mms:dataElementLabel "Analysis Value (C)"^^xsd:string ;
  mms:dataElementName "AVALC"^^xsd:string ;
  mms:dataElementType "xsd:string"^^xsd:anySimpleType ;
  mms:ordinal "76"^^xsd:positiveInteger ;
  cdiscs:dataElementCompliance <http://rdf.cdisc.org/std/adamig-1-0#Classifier.RequiredVariable> ;
  cdiscs:dataElementType <http://rdf.cdisc.org/std/schema#Classifier.Character> ;
.
<http://rdf.cdisc.org/std/adamig-1-0#Column.BDS.AVALCATy>
  rdf:type mms:Column ;
  mms:context <http://rdf.cdisc.org/std/adamig-1-0#BDS.AnalysisParameterVariables> ;
  mms:dataElementDescription "A categorical representation of AVAL and/or AVALC. Not necessarily a one-to-one mapping to AVAL and/or AVALC. For example, if PARAM is \"Headache Severity\" and AVAL has values 0, 1, 2, or 3, AVALCAT1 can categorize AVAL into \"None or Mild\" (for AVAL 1 or 2) and \"Moderate or Severe\" (for AVAL 3 or 4)."^^xsd:string ;
  mms:dataElementLabel "Analysis Category y"^^xsd:string ;
  mms:dataElementName "AVALCATy"^^xsd:string ;
  mms:dataElementType "xsd:string"^^xsd:anySimpleType ;
  mms:ordinal "77"^^xsd:positiveInteger ;
  cdiscs:dataElementCompliance <http://rdf.cdisc.org/std/adamig-1-0#Classifier.PermissibleVariable> ;
  cdiscs:dataElementType <http://rdf.cdisc.org/std/schema#Classifier.Character> ;
.
<http://rdf.cdisc.org/std/adamig-1-0#Column.BDS.AVISIT>
  rdf:type mms:Column ;
  mms:context <http://rdf.cdisc.org/std/adamig-1-0#BDS.TimingVariables> ;
  mms:dataElementDescription "AVISIT may contain the visit names as observe d (i.e., from SDTM VISIT), derived visit names, time window names, conceptual descriptions (such as Average, Endpoint, etc.), or a combination of any of these. AVISIT is a derived field and does not have to map to VISIT from the SDTM. AVISIT represents the analysis visit of the record, but it does not mean that the record was analyzed. There are often multiple records for the same subject and parameter that have the same value of AVISIT. ANLzzFL and other variables may be needed to identify the records selected for any given analysis. See Section 3.2.6 for metadata about flag variables. AVISIT should be unique for a given analysis visit window. In the event that a record does not fall within any predefined analysis timepoint window, AVISIT can be populated in any way that the sponsor chooses to indicate this fact (i.e., blank or \"Not Windowed\"). The way that AVISIT is calculated, including the variables used in its derivation, should be indicated in the variable metadata for AVISIT. The values and the rules for deriving AVISIT may be different for different parameters within the same dataset. Values of AVISIT are sponsor-defined, and are often directly usable in Clinical Study Report displays."^^xsd:string ;
  mms:dataElementLabel "Analysis Visit"^^xsd:string ;
  mms:dataElementName "AVISIT"^^xsd:string ;
  mms:dataElementType "xsd:string"^^xsd:anySimpleType ;
  mms:ordinal "31"^^xsd:positiveInteger ;
  cdiscs:dataElementCompliance <http://rdf.cdisc.org/std/adamig-1-0#Classifier.ConditionalVariable> ;
  cdiscs:dataElementType <http://rdf.cdisc.org/std/schema#Classifier.Character> ;
.
<http://rdf.cdisc.org/std/adamig-1-0#Column.BDS.AVISITN>
  rdf:type mms:Column ;
  mms:context <http://rdf.cdisc.org/std/adamig-1-0#BDS.TimingVariables> ;
  mms:dataElementDescription "A numeric representation of AVISIT. This may be a protocol visit number, a week or cycle number, an analysis visit number, or any other number logically related to AVISIT or useful for sorting that is needed for analysis. Within a parameter, there is a one-to-one mapping between AVISITN and AVISIT so that AVISITN has the same value for each distinct AVISIT. In the event that a record does not fall within any predefined analysis timepoint window, AVISITN can be populated in any way that the sponsor chooses to indicate this fact (e.g., may be null). Values of AVISITN are sponsor-defined."^^xsd:string ;
  mms:dataElementLabel "Analysis Visit (N)"^^xsd:string ;
  mms:dataElementName "AVISITN"^^xsd:string ;
  mms:dataElementType "xsd:decimal"^^xsd:anySimpleType ;
  mms:ordinal "32"^^xsd:positiveInteger ;
  cdiscs:dataElementCompliance <http://rdf.cdisc.org/std/adamig-1-0#Classifier.PermissibleVariable> ;
  cdiscs:dataElementType <http://rdf.cdisc.org/std/schema#Classifier.Numeric> ;
.
<http://rdf.cdisc.org/std/adamig-1-0#Column.BDS.AWHI>
  rdf:type mms:Column ;
  mms:context <http://rdf.cdisc.org/std/adamig-1-0#BDS.AnalysisVisitWindowingVariables> ;
  mms:dataElementDescription "The value of the ending timepoint (inclusive) needs to be used in conjunction to AWRANGE. For example, if AWRANGE is\"5-9 DAYS\", then AWHI is \"9\"."^^xsd:string ;
  mms:dataElementLabel "Analysis Window Ending Timepoint"^^xsd:string ;
  mms:dataElementName "AWHI"^^xsd:string ;
  mms:dataElementType "xsd:integer"^^xsd:anySimpleType ;
  mms:ordinal "97"^^xsd:positiveInteger ;
  cdiscs:dataElementCompliance <http://rdf.cdisc.org/std/adamig-1-0#Classifier.PermissibleVariable> ;
  cdiscs:dataElementType <http://rdf.cdisc.org/std/schema#Classifier.Numeric> ;
.
<http://rdf.cdisc.org/std/adamig-1-0#Column.BDS.AWLO>
  rdf:type mms:Column ;
  mms:context <http://rdf.cdisc.org/std/adamig-1-0#BDS.AnalysisVisitWindowingVariables> ;
  mms:dataElementDescription "The value of the beginning timepoint (inclusive) needs to be used in conjunction to AWRANGE. For example, if AWRANGE is\"5-9 DAYS\", then AWLO is \"5\"."^^xsd:string ;
  mms:dataElementLabel "Analysis Window Beginning Timepoint"^^xsd:string ;
  mms:dataElementName "AWLO"^^xsd:string ;
  mms:dataElementType "xsd:integer"^^xsd:anySimpleType ;
  mms:ordinal "96"^^xsd:positiveInteger ;
  cdiscs:dataElementCompliance <http://rdf.cdisc.org/std/adamig-1-0#Classifier.PermissibleVariable> ;
  cdiscs:dataElementType <http://rdf.cdisc.org/std/schema#Classifier.Numeric> ;
.
<http://rdf.cdisc.org/std/adamig-1-0#Column.BDS.AWRANGE>
  rdf:type mms:Column ;
  mms:context <http://rdf.cdisc.org/std/adamig-1-0#BDS.AnalysisVisitWindowingVariables> ;
  mms:dataElementDescription "The range of values that are valid for a given analysis timepoint (a given value of AVISIT). For example, \"5-9 DAYS\"."^^xsd:string ;
  mms:dataElementLabel "Analysis Window Valid Relative Range"^^xsd:string ;
  mms:dataElementName "AWRANGE"^^xsd:string ;
  mms:dataElementType "xsd:string"^^xsd:anySimpleType ;
  mms:ordinal "93"^^xsd:positiveInteger ;
  cdiscs:dataElementCompliance <http://rdf.cdisc.org/std/adamig-1-0#Classifier.PermissibleVariable> ;
  cdiscs:dataElementType <http://rdf.cdisc.org/std/schema#Classifier.Character> ;
.
<http://rdf.cdisc.org/std/adamig-1-0#Column.BDS.AWTARGET>
  rdf:type mms:Column ;
  mms:context <http://rdf.cdisc.org/std/adamig-1-0#BDS.AnalysisVisitWindowingVariables> ;
  mms:dataElementDescription "The target or most desired analysis relative day (ADY) value or analysis relative time (ARELTM) value for a given value of AVISIT."^^xsd:string ;
  mms:dataElementLabel "Analysis Window Target"^^xsd:string ;
  mms:dataElementName "AWTARGET"^^xsd:string ;
  mms:dataElementType "xsd:integer"^^xsd:anySimpleType ;
  mms:ordinal "94"^^xsd:positiveInteger ;
  cdiscs:dataElementCompliance <http://rdf.cdisc.org/std/adamig-1-0#Classifier.PermissibleVariable> ;
  cdiscs:dataElementType <http://rdf.cdisc.org/std/schema#Classifier.Numeric> ;
.
<http://rdf.cdisc.org/std/adamig-1-0#Column.BDS.AWTDIFF>
  rdf:type mms:Column ;
  mms:context <http://rdf.cdisc.org/std/adamig-1-0#BDS.AnalysisVisitWindowingVariables> ;
  mms:dataElementDescription "Absolute difference between ADY or ARELTM and AWTARGET. It will be necessary to adjust for the fact that there is no day 0 in the event that ADY and AWTARGET are not of the same sign. If the sign of the difference is important, then AWTDIFF might have to be used in conjunction with ADY or ARELTM and possibly AWTARGET when choosing among records."^^xsd:string ;
  mms:dataElementLabel "Analysis Window Diff from Target"^^xsd:string ;
  mms:dataElementName "AWTDIFF"^^xsd:string ;
  mms:dataElementType "xsd:integer"^^xsd:anySimpleType ;
  mms:ordinal "95"^^xsd:positiveInteger ;
  cdiscs:dataElementCompliance <http://rdf.cdisc.org/std/adamig-1-0#Classifier.PermissibleVariable> ;
  cdiscs:dataElementType <http://rdf.cdisc.org/std/schema#Classifier.Numeric> ;
.
<http://rdf.cdisc.org/std/adamig-1-0#Column.BDS.AWU>
  rdf:type mms:Column ;
  mms:context <http://rdf.cdisc.org/std/adamig-1-0#BDS.AnalysisVisitWindowingVariables> ;
  mms:dataElementDescription "Unit used for AWLO and AWHI. Examples: DAYS, HOURS."^^xsd:string ;
  mms:dataElementLabel "Analysis Window Unit"^^xsd:string ;
  mms:dataElementName "AWU"^^xsd:string ;
  mms:dataElementType "xsd:string"^^xsd:anySimpleType ;
  mms:ordinal "98"^^xsd:positiveInteger ;
  cdiscs:dataElementCompliance <http://rdf.cdisc.org/std/adamig-1-0#Classifier.PermissibleVariable> ;
  cdiscs:dataElementType <http://rdf.cdisc.org/std/schema#Classifier.Character> ;
.
<http://rdf.cdisc.org/std/adamig-1-0#Column.BDS.AyHI>
  rdf:type mms:Column ;
  mms:context <http://rdf.cdisc.org/std/adamig-1-0#BDS.LabRelatedAnalysisVariables> ;
  mms:dataElementDescription "See AyLO. For example, if ECG QTc values are summarized based on values 450, values >480, and values >500, there is a need for 3 \"hi value\" range variables to calculate values against: A1HI=450, A2HI=480, A3HI=500. AyHI must be included if R2AyHI is included in the dataset."^^xsd:string ;
  mms:dataElementLabel "Analysis Range y Upper Limit"^^xsd:string ;
  mms:dataElementName "AyHI"^^xsd:string ;
  mms:dataElementType "xsd:string"^^xsd:anySimpleType ;
  mms:ordinal "109"^^xsd:positiveInteger ;
  cdiscs:dataElementCompliance <http://rdf.cdisc.org/std/adamig-1-0#Classifier.ConditionalVariable> ;
  cdiscs:dataElementType <http://rdf.cdisc.org/std/schema#Classifier.Character> ;
.
<http://rdf.cdisc.org/std/adamig-1-0#Column.BDS.AyLO>
  rdf:type mms:Column ;
  mms:context <http://rdf.cdisc.org/std/adamig-1-0#BDS.LabRelatedAnalysisVariables> ;
  mms:dataElementDescription "AyLO and/or AyHI are used where there are multiple ranges used for analysis. AyLO and/or AyHI are created to capture the different levels of cutoff values used to determine whether an analysis is within a clinically acceptable value range or outside that value range. AyLO and/or AyHI are usually but not necessarily constants, parameter-specific constants, or subject-specific constants. AyLO must be included if R2AyLO is included in the dataset."^^xsd:string ;
  mms:dataElementLabel "Analysis Range y Lower Limit"^^xsd:string ;
  mms:dataElementName "AyLO"^^xsd:string ;
  mms:dataElementType "xsd:string"^^xsd:anySimpleType ;
  mms:ordinal "108"^^xsd:positiveInteger ;
  cdiscs:dataElementCompliance <http://rdf.cdisc.org/std/adamig-1-0#Classifier.ConditionalVariable> ;
  cdiscs:dataElementType <http://rdf.cdisc.org/std/schema#Classifier.Character> ;
.
<http://rdf.cdisc.org/std/adamig-1-0#Column.BDS.BASE>
  rdf:type mms:Column ;
  mms:context <http://rdf.cdisc.org/std/adamig-1-0#BDS.AnalysisParameterVariables> ;
  mms:dataElementDescription "Baseline analysis value. Required if dataset supports analysis or review of baseline value or functions of baseline value. A baseline record may be derived (e.g., it may be an average) in which case DTYPE must also be populated. If BASE is populated for a parameter, and BASE is non-null for a subject for that parameter, then there must be a record flagged by ABLFL for that subject and parameter."^^xsd:string ;
  mms:dataElementLabel "Baseline Value"^^xsd:string ;
  mms:dataElementName "BASE"^^xsd:string ;
  mms:dataElementType "xsd:decimal"^^xsd:anySimpleType ;
  mms:ordinal "78"^^xsd:positiveInteger ;
  cdiscs:dataElementCompliance <http://rdf.cdisc.org/std/adamig-1-0#Classifier.ConditionalVariable> ;
  cdiscs:dataElementType <http://rdf.cdisc.org/std/schema#Classifier.Numeric> ;
.
<http://rdf.cdisc.org/std/adamig-1-0#Column.BDS.BASEC>
  rdf:type mms:Column ;
  mms:context <http://rdf.cdisc.org/std/adamig-1-0#BDS.AnalysisParameterVariables> ;
  mms:dataElementDescription "Baseline value of AVALC. May be needed when AVALC is of interest. There must be a one-to-one map between BASE and BASEC within a given PARAM if both are populated. The baseline record for AVALC must be the same as that for AVAL."^^xsd:string ;
  mms:dataElementLabel "Baseline Value (C)"^^xsd:string ;
  mms:dataElementName "BASEC"^^xsd:string ;
  mms:dataElementType "xsd:string"^^xsd:anySimpleType ;
  mms:ordinal "79"^^xsd:positiveInteger ;
  cdiscs:dataElementCompliance <http://rdf.cdisc.org/std/adamig-1-0#Classifier.PermissibleVariable> ;
  cdiscs:dataElementType <http://rdf.cdisc.org/std/schema#Classifier.Character> ;
.
<http://rdf.cdisc.org/std/adamig-1-0#Column.BDS.BASECATy>
  rdf:type mms:Column ;
  mms:context <http://rdf.cdisc.org/std/adamig-1-0#BDS.AnalysisParameterVariables> ;
  mms:dataElementDescription "A categorical representation of BASE. Not necessarily a one-to-one map to BASE. For example, if PARAM is \"Headache Severity\" and AVAL has values 0, 1, 2, or 3, BASECAT1 can categorize BASE into \"None or Mild\" (for BASE 1 or 2) and \"Moderate or Severe\" (for BASE 3 or 4)."^^xsd:string ;
  mms:dataElementLabel "Baseline Category y"^^xsd:string ;
  mms:dataElementName "BASECATy"^^xsd:string ;
  mms:dataElementType "xsd:string"^^xsd:anySimpleType ;
  mms:ordinal "80"^^xsd:positiveInteger ;
  cdiscs:dataElementCompliance <http://rdf.cdisc.org/std/adamig-1-0#Classifier.PermissibleVariable> ;
  cdiscs:dataElementType <http://rdf.cdisc.org/std/schema#Classifier.Character> ;
.
<http://rdf.cdisc.org/std/adamig-1-0#Column.BDS.BASETYPE>
  rdf:type mms:Column ;
  mms:context <http://rdf.cdisc.org/std/adamig-1-0#BDS.AnalysisParameterVariables> ;
  mms:dataElementDescription "Sponsor-defined text describing the definition of baseline relevant to the value of BASE on the current record. Required when there are multiple ways that baseline is defined. If used for a given PARAM, should be populated for all records of that PARAM. Refer to Section 4.2.1, Rule 6, for an example."^^xsd:string ;
  mms:dataElementLabel "Baseline Type"^^xsd:string ;
  mms:dataElementName "BASETYPE"^^xsd:string ;
  mms:dataElementType "xsd:string"^^xsd:anySimpleType ;
  mms:ordinal "81"^^xsd:positiveInteger ;
  cdiscs:dataElementCompliance <http://rdf.cdisc.org/std/adamig-1-0#Classifier.ConditionalVariable> ;
  cdiscs:dataElementType <http://rdf.cdisc.org/std/schema#Classifier.Character> ;
.
<http://rdf.cdisc.org/std/adamig-1-0#Column.BDS.BNRIND>
  rdf:type mms:Column ;
  mms:context <http://rdf.cdisc.org/std/adamig-1-0#BDS.LabRelatedAnalysisVariables> ;
  mms:dataElementDescription "ANRIND of the baseline record identified by ABLFL."^^xsd:string ;
  mms:dataElementLabel "Baseline Reference Range Indicator"^^xsd:string ;
  mms:dataElementName "BNRIND"^^xsd:string ;
  mms:dataElementType "xsd:string"^^xsd:anySimpleType ;
  mms:ordinal "105"^^xsd:positiveInteger ;
  cdiscs:dataElementCompliance <http://rdf.cdisc.org/std/adamig-1-0#Classifier.PermissibleVariable> ;
  cdiscs:dataElementType <http://rdf.cdisc.org/std/schema#Classifier.Character> ;
.
<http://rdf.cdisc.org/std/adamig-1-0#Column.BDS.BTOXGR>
  rdf:type mms:Column ;
  mms:context <http://rdf.cdisc.org/std/adamig-1-0#BDS.LabRelatedAnalysisVariables> ;
  mms:dataElementDescription "ATOXGR of the baseline record identified by ABLFL."^^xsd:string ;
  mms:dataElementLabel "Baseline Toxicity Grade"^^xsd:string ;
  mms:dataElementName "BTOXGR"^^xsd:string ;
  mms:dataElementType "xsd:string"^^xsd:anySimpleType ;
  mms:ordinal "103"^^xsd:positiveInteger ;
  cdiscs:dataElementCompliance <http://rdf.cdisc.org/std/adamig-1-0#Classifier.PermissibleVariable> ;
  cdiscs:dataElementType <http://rdf.cdisc.org/std/schema#Classifier.Character> ;
.
<http://rdf.cdisc.org/std/adamig-1-0#Column.BDS.CHG>
  rdf:type mms:Column ;
  mms:context <http://rdf.cdisc.org/std/adamig-1-0#BDS.AnalysisParameterVariables> ;
  mms:dataElementDescription "Change from baseline analysis value. Equal to AVAL-BASE. If used for a given PARAM, should be populated for all post-baseline records of that PARAM. The decision on how to populate pre-baseline and baseline values of CHG are left to sponsor choice."^^xsd:string ;
  mms:dataElementLabel "Change from Baseline"^^xsd:string ;
  mms:dataElementName "CHG"^^xsd:string ;
  mms:dataElementType "xsd:decimal"^^xsd:anySimpleType ;
  mms:ordinal "82"^^xsd:positiveInteger ;
  cdiscs:dataElementCompliance <http://rdf.cdisc.org/std/adamig-1-0#Classifier.PermissibleVariable> ;
  cdiscs:dataElementType <http://rdf.cdisc.org/std/schema#Classifier.Numeric> ;
.
<http://rdf.cdisc.org/std/adamig-1-0#Column.BDS.CHGCATy>
  rdf:type mms:Column ;
  mms:context <http://rdf.cdisc.org/std/adamig-1-0#BDS.AnalysisParameterVariables> ;
  mms:dataElementDescription "A categorical representation of CHG. Not necessarily a one-to-one mapping to CHG. The definition of CHGCATy may vary by PARAM. For example, CHGCAT1 may be used to categorize CHG with respect to ranges of change in SYSBP; \"-10 to -5 mm Hg\", \"-5 to 0 mm Hg\" categories."^^xsd:string ;
  mms:dataElementLabel "Change from Baseline Category y"^^xsd:string ;
  mms:dataElementName "CHGCATy"^^xsd:string ;
  mms:dataElementType "xsd:string"^^xsd:anySimpleType ;
  mms:ordinal "83"^^xsd:positiveInteger ;
  cdiscs:dataElementCompliance <http://rdf.cdisc.org/std/adamig-1-0#Classifier.PermissibleVariable> ;
  cdiscs:dataElementType <http://rdf.cdisc.org/std/schema#Classifier.Character> ;
.
<http://rdf.cdisc.org/std/adamig-1-0#Column.BDS.CNSR>
  rdf:type mms:Column ;
  mms:context <http://rdf.cdisc.org/std/adamig-1-0#BDS.TimeToEventVariables> ;
  mms:dataElementDescription "Defines whether the event was censored (period of observation truncated prior to event being observed). It is strongly recommended to use 0 as an event indicator and positive integers as censoring indicators. It is also recommended that unique positive integers be used to indicate coded descriptions of censoring reasons. CNSR is required for time-to-event parameters."^^xsd:string ;
  mms:dataElementLabel "Censor"^^xsd:string ;
  mms:dataElementName "CNSR"^^xsd:string ;
  mms:dataElementType "xsd:integer"^^xsd:anySimpleType ;
  mms:ordinal "100"^^xsd:positiveInteger ;
  cdiscs:dataElementCompliance <http://rdf.cdisc.org/std/adamig-1-0#Classifier.ConditionalVariable> ;
  cdiscs:dataElementType <http://rdf.cdisc.org/std/schema#Classifier.Numeric> ;
.
<http://rdf.cdisc.org/std/adamig-1-0#Column.BDS.COMPPFL>
  rdf:type mms:Column ;
  mms:context <http://rdf.cdisc.org/std/adamig-1-0#BDS.IndicatorVariables> ;
  mms:dataElementDescription "Character indicator of whether the subject was in the completed subjects analysis for the specific parameter."^^xsd:string ;
  mms:dataElementLabel "Completers Parameter-Level Flag"^^xsd:string ;
  mms:dataElementName "COMPPFL"^^xsd:string ;
  mms:dataElementType "xsd:string"^^xsd:anySimpleType ;
  mms:ordinal "136"^^xsd:positiveInteger ;
  cdiscs:controlledTermsOrFormat "Y"^^xsd:string ;
  cdiscs:dataElementCompliance <http://rdf.cdisc.org/std/adamig-1-0#Classifier.ConditionalVariable> ;
  cdiscs:dataElementType <http://rdf.cdisc.org/std/schema#Classifier.Character> ;
.
<http://rdf.cdisc.org/std/adamig-1-0#Column.BDS.COMPPFN>
  rdf:type mms:Column ;
  mms:context <http://rdf.cdisc.org/std/adamig-1-0#BDS.IndicatorVariables> ;
  mms:dataElementDescription "Numeric indicator of whether the subject was in the completed subjects analysis for the specific parameter."^^xsd:string ;
  mms:dataElementLabel "Completers Parameter-Level Flag (N)"^^xsd:string ;
  mms:dataElementName "COMPPFN"^^xsd:string ;
  mms:dataElementType "xsd:positiveInteger"^^xsd:anySimpleType ;
  mms:ordinal "137"^^xsd:positiveInteger ;
  cdiscs:controlledTermsOrFormat "1"^^xsd:string ;
  cdiscs:dataElementCompliance <http://rdf.cdisc.org/std/adamig-1-0#Classifier.PermissibleVariable> ;
  cdiscs:dataElementType <http://rdf.cdisc.org/std/schema#Classifier.Numeric> ;
.
<http://rdf.cdisc.org/std/adamig-1-0#Column.BDS.COMPRFL>
  rdf:type mms:Column ;
  mms:context <http://rdf.cdisc.org/std/adamig-1-0#BDS.IndicatorVariables> ;
  mms:dataElementDescription "Character indicator of whether the subject was in the completed subjects analysis for the specific record."^^xsd:string ;
  mms:dataElementLabel "Completers Record-Level Flag"^^xsd:string ;
  mms:dataElementName "COMPRFL"^^xsd:string ;
  mms:dataElementType "xsd:string"^^xsd:anySimpleType ;
  mms:ordinal "134"^^xsd:positiveInteger ;
  cdiscs:controlledTermsOrFormat "Y"^^xsd:string ;
  cdiscs:dataElementCompliance <http://rdf.cdisc.org/std/adamig-1-0#Classifier.ConditionalVariable> ;
  cdiscs:dataElementType <http://rdf.cdisc.org/std/schema#Classifier.Character> ;
.
<http://rdf.cdisc.org/std/adamig-1-0#Column.BDS.COMPRFN>
  rdf:type mms:Column ;
  mms:context <http://rdf.cdisc.org/std/adamig-1-0#BDS.IndicatorVariables> ;
  mms:dataElementDescription "Numeric indicator of whether the subject was in the completed subjects analysis for the specific record."^^xsd:string ;
  mms:dataElementLabel "Completers Record-Level Flag (N)"^^xsd:string ;
  mms:dataElementName "COMPRFN"^^xsd:string ;
  mms:dataElementType "xsd:positiveInteger"^^xsd:anySimpleType ;
  mms:ordinal "135"^^xsd:positiveInteger ;
  cdiscs:controlledTermsOrFormat "1"^^xsd:string ;
  cdiscs:dataElementCompliance <http://rdf.cdisc.org/std/adamig-1-0#Classifier.PermissibleVariable> ;
  cdiscs:dataElementType <http://rdf.cdisc.org/std/schema#Classifier.Numeric> ;
.
<http://rdf.cdisc.org/std/adamig-1-0#Column.BDS.CRITy>
  rdf:type mms:Column ;
  mms:context <http://rdf.cdisc.org/std/adamig-1-0#BDS.AnalysisParameterVariables> ;
  mms:dataElementDescription "A text string identifying a pre-specified criterion, for example SYSBP > 90. In some cases, the presence of the text string indicates that the criterion is satisfied on this record, while a null value indicates that the criterion is not satisfied. In other cases, the text string identifies the criterion being evaluated, but whether or not the criterion is satisfied is indicated by the value of the variable CRITyFL. See CRITyFL and CRITyFN in Section 3.2.6. Refer to Section 4.7 for additional discussion of CRITy, CRITyFL and CRITyFN."^^xsd:string ;
  mms:dataElementLabel "Analysis Criterion y"^^xsd:string ;
  mms:dataElementName "CRITy"^^xsd:string ;
  mms:dataElementType "xsd:string"^^xsd:anySimpleType ;
  mms:ordinal "91"^^xsd:positiveInteger ;
  cdiscs:dataElementCompliance <http://rdf.cdisc.org/std/adamig-1-0#Classifier.PermissibleVariable> ;
  cdiscs:dataElementType <http://rdf.cdisc.org/std/schema#Classifier.Character> ;
.
<http://rdf.cdisc.org/std/adamig-1-0#Column.BDS.CRITyFL>
  rdf:type mms:Column ;
  mms:context <http://rdf.cdisc.org/std/adamig-1-0#BDS.IndicatorVariables> ;
  mms:dataElementDescription "Character indicator of whether the criterion defined in CRITy was met. See also CRITy in Section 3.2.4. Required if CRITy exists. Refer to Section 4.7 for additional discussion."^^xsd:string ;
  mms:dataElementLabel "Criterion y Evaluation Result Flag"^^xsd:string ;
  mms:dataElementName "CRITyFL"^^xsd:string ;
  mms:dataElementType "xsd:string"^^xsd:anySimpleType ;
  mms:ordinal "138"^^xsd:positiveInteger ;
  cdiscs:controlledTermsOrFormat "Y or Y, N"^^xsd:string ;
  cdiscs:dataElementCompliance <http://rdf.cdisc.org/std/adamig-1-0#Classifier.ConditionalVariable> ;
  cdiscs:dataElementType <http://rdf.cdisc.org/std/schema#Classifier.Character> ;
.
<http://rdf.cdisc.org/std/adamig-1-0#Column.BDS.CRITyFN>
  rdf:type mms:Column ;
  mms:context <http://rdf.cdisc.org/std/adamig-1-0#BDS.IndicatorVariables> ;
  mms:dataElementDescription "Numeric indicator of whether the criterion defined in CRITy was met."^^xsd:string ;
  mms:dataElementLabel "Criterion y Evaluation Result Flag (N)"^^xsd:string ;
  mms:dataElementName "CRITyFN"^^xsd:string ;
  mms:dataElementType "xsd:integer"^^xsd:anySimpleType ;
  mms:ordinal "139"^^xsd:positiveInteger ;
  cdiscs:controlledTermsOrFormat "1 or 1, 0"^^xsd:string ;
  cdiscs:dataElementCompliance <http://rdf.cdisc.org/std/adamig-1-0#Classifier.PermissibleVariable> ;
  cdiscs:dataElementType <http://rdf.cdisc.org/std/schema#Classifier.Numeric> ;
.
<http://rdf.cdisc.org/std/adamig-1-0#Column.BDS.DTYPE>
  rdf:type mms:Column ;
  mms:context <http://rdf.cdisc.org/std/adamig-1-0#BDS.AnalysisDescriptorVariables> ;
  mms:dataElementDescription "Analysis value derivation method. DTYPE is used to denote, and is required to be populated, when the value of AVAL or AVALC (and thus the entire record) has been imputed, derived, or copied from other record(s). DTYPE is required to be populated even if AVAL and AVALC are null on the derived record. DTYPE is not used to denote that an analysis parameter is derived. PARAMTYP may be used to indicate that an entire parameter is derived. For each value of DTYPE, the precise derivation algorithm must be defined in analysis variable metadata, even for DTYPE values in the controlled terminology. See Section 4 for examples of the use of DTYPE. Examples of DTYPE values: LOCF = last observation carried forward. WOCF = worst observation carried forward. AVERAGE = average of values."^^xsd:string ;
  mms:dataElementLabel "Derivation Type"^^xsd:string ;
  mms:dataElementName "DTYPE"^^xsd:string ;
  mms:dataElementType "xsd:string"^^xsd:anySimpleType ;
  mms:dataElementValueDomain adamct:C81224 ;
  mms:ordinal "92"^^xsd:positiveInteger ;
  cdiscs:controlledTermsOrFormat "(DTYPE)"^^xsd:string ;
  cdiscs:dataElementCompliance <http://rdf.cdisc.org/std/adamig-1-0#Classifier.ConditionalVariable> ;
  cdiscs:dataElementType <http://rdf.cdisc.org/std/schema#Classifier.Character> ;
.
<http://rdf.cdisc.org/std/adamig-1-0#Column.BDS.EVNTDESC>
  rdf:type mms:Column ;
  mms:context <http://rdf.cdisc.org/std/adamig-1-0#BDS.TimeToEventVariables> ;
  mms:dataElementDescription "Description of the event of interest or censoring reason."^^xsd:string ;
  mms:dataElementLabel "Event or Censoring Description"^^xsd:string ;
  mms:dataElementName "EVNTDESC"^^xsd:string ;
  mms:dataElementType "xsd:string"^^xsd:anySimpleType ;
  mms:ordinal "101"^^xsd:positiveInteger ;
  cdiscs:dataElementCompliance <http://rdf.cdisc.org/std/adamig-1-0#Classifier.PermissibleVariable> ;
  cdiscs:dataElementType <http://rdf.cdisc.org/std/schema#Classifier.Character> ;
.
<http://rdf.cdisc.org/std/adamig-1-0#Column.BDS.FASPFL>
  rdf:type mms:Column ;
  mms:context <http://rdf.cdisc.org/std/adamig-1-0#BDS.IndicatorVariables> ;
  mms:dataElementDescription "Character indicator of whether the subject was in the full analysis set analysis for the specific parameter."^^xsd:string ;
  mms:dataElementLabel "Full Analysis Set Parameter-Level Flag"^^xsd:string ;
  mms:dataElementName "FASPFL"^^xsd:string ;
  mms:dataElementType "xsd:string"^^xsd:anySimpleType ;
  mms:ordinal "128"^^xsd:positiveInteger ;
  cdiscs:controlledTermsOrFormat "Y"^^xsd:string ;
  cdiscs:dataElementCompliance <http://rdf.cdisc.org/std/adamig-1-0#Classifier.ConditionalVariable> ;
  cdiscs:dataElementType <http://rdf.cdisc.org/std/schema#Classifier.Character> ;
.
<http://rdf.cdisc.org/std/adamig-1-0#Column.BDS.FASPFN>
  rdf:type mms:Column ;
  mms:context <http://rdf.cdisc.org/std/adamig-1-0#BDS.IndicatorVariables> ;
  mms:dataElementDescription "Numeric indicator of whether the subject was in the full analysis set analysis for the specific parameter."^^xsd:string ;
  mms:dataElementLabel "Full Analysis Set Param-Level Flag (N)"^^xsd:string ;
  mms:dataElementName "FASPFN"^^xsd:string ;
  mms:dataElementType "xsd:positiveInteger"^^xsd:anySimpleType ;
  mms:ordinal "129"^^xsd:positiveInteger ;
  cdiscs:controlledTermsOrFormat "1"^^xsd:string ;
  cdiscs:dataElementCompliance <http://rdf.cdisc.org/std/adamig-1-0#Classifier.PermissibleVariable> ;
  cdiscs:dataElementType <http://rdf.cdisc.org/std/schema#Classifier.Numeric> ;
.
<http://rdf.cdisc.org/std/adamig-1-0#Column.BDS.FASRFL>
  rdf:type mms:Column ;
  mms:context <http://rdf.cdisc.org/std/adamig-1-0#BDS.IndicatorVariables> ;
  mms:dataElementDescription "Character indicator of whether the subject was in the full analysis set analysis for the specific record."^^xsd:string ;
  mms:dataElementLabel "Full Analysis Set Record-Level Flag"^^xsd:string ;
  mms:dataElementName "FASRFL"^^xsd:string ;
  mms:dataElementType "xsd:string"^^xsd:anySimpleType ;
  mms:ordinal "126"^^xsd:positiveInteger ;
  cdiscs:controlledTermsOrFormat "Y"^^xsd:string ;
  cdiscs:dataElementCompliance <http://rdf.cdisc.org/std/adamig-1-0#Classifier.ConditionalVariable> ;
  cdiscs:dataElementType <http://rdf.cdisc.org/std/schema#Classifier.Character> ;
.
<http://rdf.cdisc.org/std/adamig-1-0#Column.BDS.FASRFN>
  rdf:type mms:Column ;
  mms:context <http://rdf.cdisc.org/std/adamig-1-0#BDS.IndicatorVariables> ;
  mms:dataElementDescription "Numeric indicator of whether the subject was in the full analysis set analysis for the specific record."^^xsd:string ;
  mms:dataElementLabel "Full Analysis Set Record-Level Flag (N)"^^xsd:string ;
  mms:dataElementName "FASRFN"^^xsd:string ;
  mms:dataElementType "xsd:positiveInteger"^^xsd:anySimpleType ;
  mms:ordinal "127"^^xsd:positiveInteger ;
  cdiscs:controlledTermsOrFormat "1"^^xsd:string ;
  cdiscs:dataElementCompliance <http://rdf.cdisc.org/std/adamig-1-0#Classifier.PermissibleVariable> ;
  cdiscs:dataElementType <http://rdf.cdisc.org/std/schema#Classifier.Numeric> ;
.
<http://rdf.cdisc.org/std/adamig-1-0#Column.BDS.ITTPFL>
  rdf:type mms:Column ;
  mms:context <http://rdf.cdisc.org/std/adamig-1-0#BDS.IndicatorVariables> ;
  mms:dataElementDescription "Character indicator of whether the subject was in the intent-to-treat analysis for the specific parameter."^^xsd:string ;
  mms:dataElementLabel "Intent-To-Treat Parameter-Level Flag"^^xsd:string ;
  mms:dataElementName "ITTPFL"^^xsd:string ;
  mms:dataElementType "xsd:string"^^xsd:anySimpleType ;
  mms:ordinal "120"^^xsd:positiveInteger ;
  cdiscs:controlledTermsOrFormat "Y"^^xsd:string ;
  cdiscs:dataElementCompliance <http://rdf.cdisc.org/std/adamig-1-0#Classifier.ConditionalVariable> ;
  cdiscs:dataElementType <http://rdf.cdisc.org/std/schema#Classifier.Character> ;
.
<http://rdf.cdisc.org/std/adamig-1-0#Column.BDS.ITTPFN>
  rdf:type mms:Column ;
  mms:context <http://rdf.cdisc.org/std/adamig-1-0#BDS.IndicatorVariables> ;
  mms:dataElementDescription "Numeric indicator of whether the subject was in the intent-to-treat analysis for the specific parameter."^^xsd:string ;
  mms:dataElementLabel "Intent-To-Treat Param-Level Flag (N)"^^xsd:string ;
  mms:dataElementName "ITTPFN"^^xsd:string ;
  mms:dataElementType "xsd:positiveInteger"^^xsd:anySimpleType ;
  mms:ordinal "121"^^xsd:positiveInteger ;
  cdiscs:controlledTermsOrFormat "1"^^xsd:string ;
  cdiscs:dataElementCompliance <http://rdf.cdisc.org/std/adamig-1-0#Classifier.PermissibleVariable> ;
  cdiscs:dataElementType <http://rdf.cdisc.org/std/schema#Classifier.Numeric> ;
.
<http://rdf.cdisc.org/std/adamig-1-0#Column.BDS.ITTRFL>
  rdf:type mms:Column ;
  mms:context <http://rdf.cdisc.org/std/adamig-1-0#BDS.IndicatorVariables> ;
  mms:dataElementDescription "Character indicator of whether the subject was in the intent-to-treat analysis for the specific record."^^xsd:string ;
  mms:dataElementLabel "Intent-To-Treat Record-Level Flag"^^xsd:string ;
  mms:dataElementName "ITTRFL"^^xsd:string ;
  mms:dataElementType "xsd:string"^^xsd:anySimpleType ;
  mms:ordinal "118"^^xsd:positiveInteger ;
  cdiscs:controlledTermsOrFormat "Y"^^xsd:string ;
  cdiscs:dataElementCompliance <http://rdf.cdisc.org/std/adamig-1-0#Classifier.ConditionalVariable> ;
  cdiscs:dataElementType <http://rdf.cdisc.org/std/schema#Classifier.Character> ;
.
<http://rdf.cdisc.org/std/adamig-1-0#Column.BDS.ITTRFN>
  rdf:type mms:Column ;
  mms:context <http://rdf.cdisc.org/std/adamig-1-0#BDS.IndicatorVariables> ;
  mms:dataElementDescription "Numeric indicator of whether the subject was in the intent-to-treat analysis for the specific record."^^xsd:string ;
  mms:dataElementLabel "Intent-To-Treat Record-Level Flag (N)"^^xsd:string ;
  mms:dataElementName "ITTRFN"^^xsd:string ;
  mms:dataElementType "xsd:positiveInteger"^^xsd:anySimpleType ;
  mms:ordinal "119"^^xsd:positiveInteger ;
  cdiscs:controlledTermsOrFormat "1"^^xsd:string ;
  cdiscs:dataElementCompliance <http://rdf.cdisc.org/std/adamig-1-0#Classifier.PermissibleVariable> ;
  cdiscs:dataElementType <http://rdf.cdisc.org/std/schema#Classifier.Numeric> ;
.
<http://rdf.cdisc.org/std/adamig-1-0#Column.BDS.LVOTFL>
  rdf:type mms:Column ;
  mms:context <http://rdf.cdisc.org/std/adamig-1-0#BDS.IndicatorVariables> ;
  mms:dataElementDescription "Character indicator of the last non-missing value on treatment for each parameter."^^xsd:string ;
  mms:dataElementLabel "Last Value On Treatment Record Flag"^^xsd:string ;
  mms:dataElementName "LVOTFL"^^xsd:string ;
  mms:dataElementType "xsd:string"^^xsd:anySimpleType ;
  mms:ordinal "116"^^xsd:positiveInteger ;
  cdiscs:controlledTermsOrFormat "Y"^^xsd:string ;
  cdiscs:dataElementCompliance <http://rdf.cdisc.org/std/adamig-1-0#Classifier.PermissibleVariable> ;
  cdiscs:dataElementType <http://rdf.cdisc.org/std/schema#Classifier.Character> ;
.
<http://rdf.cdisc.org/std/adamig-1-0#Column.BDS.LVOTFN>
  rdf:type mms:Column ;
  mms:context <http://rdf.cdisc.org/std/adamig-1-0#BDS.IndicatorVariables> ;
  mms:dataElementDescription "Numeric indicator of the last non-missing value on treatment for each parameter."^^xsd:string ;
  mms:dataElementLabel "Last Value On Treatment Record Flag (N)"^^xsd:string ;
  mms:dataElementName "LVOTFN"^^xsd:string ;
  mms:dataElementType "xsd:positiveInteger"^^xsd:anySimpleType ;
  mms:ordinal "117"^^xsd:positiveInteger ;
  cdiscs:controlledTermsOrFormat "1"^^xsd:string ;
  cdiscs:dataElementCompliance <http://rdf.cdisc.org/std/adamig-1-0#Classifier.PermissibleVariable> ;
  cdiscs:dataElementType <http://rdf.cdisc.org/std/schema#Classifier.Numeric> ;
.
<http://rdf.cdisc.org/std/adamig-1-0#Column.BDS.ONTRTFL>
  rdf:type mms:Column ;
  mms:context <http://rdf.cdisc.org/std/adamig-1-0#BDS.IndicatorVariables> ;
  mms:dataElementDescription "Character indicator of whether the observation occurred while the subject was on treatment."^^xsd:string ;
  mms:dataElementLabel "On Treatment Record Flag"^^xsd:string ;
  mms:dataElementName "ONTRTFL"^^xsd:string ;
  mms:dataElementType "xsd:string"^^xsd:anySimpleType ;
  mms:ordinal "114"^^xsd:positiveInteger ;
  cdiscs:controlledTermsOrFormat "Y"^^xsd:string ;
  cdiscs:dataElementCompliance <http://rdf.cdisc.org/std/adamig-1-0#Classifier.PermissibleVariable> ;
  cdiscs:dataElementType <http://rdf.cdisc.org/std/schema#Classifier.Character> ;
.
<http://rdf.cdisc.org/std/adamig-1-0#Column.BDS.ONTRTFN>
  rdf:type mms:Column ;
  mms:context <http://rdf.cdisc.org/std/adamig-1-0#BDS.IndicatorVariables> ;
  mms:dataElementDescription "Numeric indicator of whether the observation occurred while the subject was on treatment."^^xsd:string ;
  mms:dataElementLabel "On Treatment Record Flag (N)"^^xsd:string ;
  mms:dataElementName "ONTRTFN"^^xsd:string ;
  mms:dataElementType "xsd:positiveInteger"^^xsd:anySimpleType ;
  mms:ordinal "115"^^xsd:positiveInteger ;
  cdiscs:controlledTermsOrFormat "1"^^xsd:string ;
  cdiscs:dataElementCompliance <http://rdf.cdisc.org/std/adamig-1-0#Classifier.PermissibleVariable> ;
  cdiscs:dataElementType <http://rdf.cdisc.org/std/schema#Classifier.Numeric> ;
.
<http://rdf.cdisc.org/std/adamig-1-0#Column.BDS.PARAM>
  rdf:type mms:Column ;
  mms:context <http://rdf.cdisc.org/std/adamig-1-0#BDS.AnalysisParameterVariables> ;
  mms:dataElementDescription "The description of the analysis parameter. Examples include: \"Supine Systolic Blood Pressure (mm Hg)\", \"Log10 (Weight (kg))\", \"Time to First Hypertension Event (Days)\", \"Estimated Tumor Growth Rate\", etc. PARAM should be sufficient to describe unambiguously the contents of AVAL and/or AVALC. PARAM must include test, units (if appropriate), specimen type, location, position, and any other applicable qualifying information needed, any additional information such as transformation function, and indeed any text that is needed. PARAM may be longer than 40 characters in length. PARAM is often directly usable in Clinical Study Report displays. Note that in the ADaMIG, \"parameter\" is a synonym of \"analysis parameter.\""^^xsd:string ;
  mms:dataElementLabel "Parameter"^^xsd:string ;
  mms:dataElementName "PARAM"^^xsd:string ;
  mms:dataElementType "xsd:string"^^xsd:anySimpleType ;
  mms:ordinal "69"^^xsd:positiveInteger ;
  cdiscs:dataElementCompliance <http://rdf.cdisc.org/std/adamig-1-0#Classifier.RequiredVariable> ;
  cdiscs:dataElementType <http://rdf.cdisc.org/std/schema#Classifier.Character> ;
.
<http://rdf.cdisc.org/std/adamig-1-0#Column.BDS.PARAMCD>
  rdf:type mms:Column ;
  mms:context <http://rdf.cdisc.org/std/adamig-1-0#BDS.AnalysisParameterVariables> ;
  mms:dataElementDescription "The short name of the analysis parameter in PARAM. Values of PARAMCD should follow SAS 5 variable naming conventions (8 characters or less; starts with a letter; contains only letters and digits). There must be a one-to-one mapping with PARAM. Examples: SYSBP, LWEIGHT, HYPEREVT."^^xsd:string ;
  mms:dataElementLabel "Parameter Code"^^xsd:string ;
  mms:dataElementName "PARAMCD"^^xsd:string ;
  mms:dataElementType "xsd:string"^^xsd:anySimpleType ;
  mms:ordinal "70"^^xsd:positiveInteger ;
  cdiscs:dataElementCompliance <http://rdf.cdisc.org/std/adamig-1-0#Classifier.RequiredVariable> ;
  cdiscs:dataElementType <http://rdf.cdisc.org/std/schema#Classifier.Character> ;
.
<http://rdf.cdisc.org/std/adamig-1-0#Column.BDS.PARAMN>
  rdf:type mms:Column ;
  mms:context <http://rdf.cdisc.org/std/adamig-1-0#BDS.AnalysisParameterVariables> ;
  mms:dataElementDescription "Useful for ordering and programmatic manipulation. There must be a one-to-one mapping with PARAM. Must be an integer."^^xsd:string ;
  mms:dataElementLabel "Parameter (N)"^^xsd:string ;
  mms:dataElementName "PARAMN"^^xsd:string ;
  mms:dataElementType "xsd:integer"^^xsd:anySimpleType ;
  mms:ordinal "71"^^xsd:positiveInteger ;
  cdiscs:dataElementCompliance <http://rdf.cdisc.org/std/adamig-1-0#Classifier.PermissibleVariable> ;
  cdiscs:dataElementType <http://rdf.cdisc.org/std/schema#Classifier.Numeric> ;
.
<http://rdf.cdisc.org/std/adamig-1-0#Column.BDS.PARAMTYP>
  rdf:type mms:Column ;
  mms:context <http://rdf.cdisc.org/std/adamig-1-0#BDS.AnalysisParameterVariables> ;
  mms:dataElementDescription "Indicator of whether the parameter is derived as a function of one or more other parameters. This should not be confused with DTYPE which is relevant to derived AVAL and/or AVALC values."^^xsd:string ;
  mms:dataElementLabel "Parameter Type"^^xsd:string ;
  mms:dataElementName "PARAMTYP"^^xsd:string ;
  mms:dataElementType "xsd:string"^^xsd:anySimpleType ;
  mms:dataElementValueDomain adamct:C81225 ;
  mms:ordinal "72"^^xsd:positiveInteger ;
  cdiscs:controlledTermsOrFormat "(PARAMTYP)"^^xsd:string ;
  cdiscs:dataElementCompliance <http://rdf.cdisc.org/std/adamig-1-0#Classifier.PermissibleVariable> ;
  cdiscs:dataElementType <http://rdf.cdisc.org/std/schema#Classifier.Character> ;
.
<http://rdf.cdisc.org/std/adamig-1-0#Column.BDS.PARCATy>
  rdf:type mms:Column ;
  mms:context <http://rdf.cdisc.org/std/adamig-1-0#BDS.AnalysisParameterVariables> ;
