# baseURI: http://rdf.cdisc.org/std/cdash-1-1
# imports: http://rdf.cdisc.org/cdash-terminology
# imports: http://rdf.cdisc.org/schema
# imports: http://rdf.cdisc.org/sdtm-terminology

# c14n-version: 3
@prefix cdash-1-1: <http://rdf.cdisc.org/std/cdash-1-1#> .
@prefix cdashct: <http://rdf.cdisc.org/cdash-terminology#> .
@prefix cdiscs: <http://rdf.cdisc.org/schema#> .
@prefix dc: <http://purl.org/dc/elements/1.1/> .
@prefix mms: <http://rdf.cdisc.org/mms#> .
@prefix owl: <http://www.w3.org/2002/07/owl#> .
@prefix rdf: <http://www.w3.org/1999/02/22-rdf-syntax-ns#> .
@prefix rdfs: <http://www.w3.org/2000/01/rdf-schema#> .
@prefix sdtmct: <http://rdf.cdisc.org/sdtm-terminology#> .
@prefix skos: <http://www.w3.org/2004/02/skos/core#> .
@prefix xsd: <http://www.w3.org/2001/XMLSchema#> .
<http://rdf.cdisc.org/std/cdash-1-1>
  rdf:type owl:Ontology ;
  dc:creator "FDA/PhUSE CSS Semantic Technology Project"^^xsd:string ;
  rdfs:label "CDASH 1.1"^^xsd:string ;
  owl:imports <http://rdf.cdisc.org/cdash-terminology> ;
  owl:imports <http://rdf.cdisc.org/schema> ;
  owl:imports <http://rdf.cdisc.org/sdtm-terminology> ;
  owl:versionInfo "1.1"^^xsd:string ;
.
<http://rdf.cdisc.org/std/cdash-1-1#Classifier.HighlyRecommendedField>
  rdf:type cdiscs:DataElementCompliance ;
  rdfs:label "Highly Recommended Data Collection Field"^^xsd:string ;
  skos:definition "Highly Recommended (HR): A data collection field that should be on the CRF (e.g., a regulatory requirement)."^^xsd:string ;
.
<http://rdf.cdisc.org/std/cdash-1-1#Classifier.OptionalField>
  rdf:type cdiscs:DataElementCompliance ;
  rdfs:label "Optional Data Collection Field"^^xsd:string ;
  skos:definition "Optional (O): A data collection field that is available for use."^^xsd:string ;
.
<http://rdf.cdisc.org/std/cdash-1-1#Classifier.RecommendedOrConditionalField>
  rdf:type cdiscs:DataElementCompliance ;
  rdfs:label "Recommended or Conditional Data Collection Field"^^xsd:string ;
  skos:definition "Recommended/Conditional (R/C): A data collection field that should be on a CRF based on certain conditions (e.g., complete date of birth is preferred, but may not be allowed in some regions; AE time should only be captured if there is another data point with which to compare it). In the absence of this data point other data points would be less meaningful."^^xsd:string ;
.
cdash-1-1:CommonTimingVariableDataset
  rdf:type mms:DomainContext ;
  mms:context <http://rdf.cdisc.org/std/cdash-1-1#Model.CDASH-1-1> ;
  mms:contextDescription "Dataset holding Common Timing Variables used by CDASH."^^xsd:string ;
  mms:contextLabel "Common Timing Variables"^^xsd:string ;
  mms:contextName "CommonTimingVariables"^^xsd:string ;
  mms:ordinal "9"^^xsd:positiveInteger ;
.
cdash-1-1:CommonVariableDataset
  rdf:type mms:DomainContext ;
  mms:context <http://rdf.cdisc.org/std/cdash-1-1#Model.CDASH-1-1> ;
  mms:contextDescription "Dataset holding variables that might be applied to all CDASH Domains where the concept is not captured at the Domain level."^^xsd:string ;
  mms:contextLabel "Common Variables"^^xsd:string ;
  mms:contextName "CommonVariables"^^xsd:string ;
  mms:ordinal "8"^^xsd:positiveInteger ;
.
<http://rdf.cdisc.org/std/cdash-1-1#DataElement.AE.AEACN>
  rdf:type mms:DataElement ;
  mms:context <http://rdf.cdisc.org/std/cdash-1-1#Domain.AE> ;
  mms:dataElementDescription "Changes made to the study treatment in response to the adverse event."^^xsd:string ;
  mms:dataElementLabel "Action Taken with Study Treatment"^^xsd:string ;
  mms:dataElementName "AEACN"^^xsd:string ;
  mms:dataElementType "xsd:string"^^xsd:anySimpleType ;
  mms:dataElementValueDomain sdtmct:C66767 ;
  mms:ordinal "20"^^xsd:positiveInteger ;
  cdiscs:completionInstructions "Record changes made to the study treatment resulting from the adverse event."^^xsd:string ;
  cdiscs:controlledTermsOrFormat "ACN"^^xsd:string ;
  cdiscs:prompt "Action Taken with Study Treatment"^^xsd:string ;
  cdiscs:questionText "What action was taken with study treatment?"^^xsd:string ;
.
<http://rdf.cdisc.org/std/cdash-1-1#DataElement.AE.AEACNOTH>
  rdf:type mms:DataElement ;
  mms:context <http://rdf.cdisc.org/std/cdash-1-1#Domain.AE> ;
  mms:dataElementDescription "Describes Other Action(s) taken in response to the adverse event that are unrelated to study treatment dose changes."^^xsd:string ;
  mms:dataElementLabel "Other Action Taken"^^xsd:string ;
  mms:dataElementName "AEACNOTH"^^xsd:string ;
  mms:dataElementType "xsd:string"^^xsd:anySimpleType ;
  mms:ordinal "21"^^xsd:positiveInteger ;
  cdiscs:completionInstructions "Record all other action(s) taken resulting from the adverse event that are unrelated to study treatment."^^xsd:string ;
  cdiscs:prompt "Other Action Taken"^^xsd:string ;
  cdiscs:questionText "What other action was taken in response to this adverse event?"^^xsd:string ;
.
<http://rdf.cdisc.org/std/cdash-1-1#DataElement.AE.AEDIS>
  rdf:type mms:DataElement ;
  mms:context <http://rdf.cdisc.org/std/cdash-1-1#Domain.AE> ;
  mms:dataElementDescription "Indication of whether the adverse event caused the subject to discontinue from the study."^^xsd:string ;
  mms:dataElementLabel "Caused Study Discontinuation"^^xsd:string ;
  mms:dataElementName "AEDIS"^^xsd:string ;
  mms:dataElementType "xsd:string"^^xsd:anySimpleType ;
  mms:dataElementValueDomain sdtmct:C66742 ;
  mms:ordinal "23"^^xsd:positiveInteger ;
  cdiscs:completionInstructions "Record if the AE caused the subject to discontinue from the study."^^xsd:string ;
  cdiscs:controlledTermsOrFormat "NY"^^xsd:string ;
  cdiscs:prompt "Caused Study Discontinuation"^^xsd:string ;
  cdiscs:questionText "Did the adverse event cause the subject to be discontinued from the study?"^^xsd:string ;
.
<http://rdf.cdisc.org/std/cdash-1-1#DataElement.AE.AEENDAT>
  rdf:type mms:DataElement ;
  mms:context <http://rdf.cdisc.org/std/cdash-1-1#Domain.AE> ;
  mms:dataElementDescription "Date when the adverse event resolved."^^xsd:string ;
  mms:dataElementLabel "End Date"^^xsd:string ;
  mms:dataElementName "AEENDAT"^^xsd:string ;
  mms:dataElementType "xsd:date"^^xsd:anySimpleType ;
  mms:ordinal "7"^^xsd:positiveInteger ;
  cdiscs:completionInstructions "Record the date that the AE resolved using this format (DD-MON-YYYY). If the AE is ongoing, leave the field blank."^^xsd:string ;
  cdiscs:prompt "End Date"^^xsd:string ;
  cdiscs:questionText "What date did the adverse event end?"^^xsd:string ;
.
<http://rdf.cdisc.org/std/cdash-1-1#DataElement.AE.AEENTIM>
  rdf:type mms:DataElement ;
  mms:context <http://rdf.cdisc.org/std/cdash-1-1#Domain.AE> ;
  mms:dataElementDescription "Time when the adverse event resolved."^^xsd:string ;
  mms:dataElementLabel "End Time"^^xsd:string ;
  mms:dataElementName "AEENTIM"^^xsd:string ;
  mms:dataElementType "xsd:time"^^xsd:anySimpleType ;
  mms:ordinal "8"^^xsd:positiveInteger ;
  cdiscs:completionInstructions "If appropriate, record the time (as complete as possible) that the AE resolved."^^xsd:string ;
  cdiscs:prompt "End Time"^^xsd:string ;
  cdiscs:questionText "At what time did the adverse event end?"^^xsd:string ;
.
<http://rdf.cdisc.org/std/cdash-1-1#DataElement.AE.AEOCCUR>
  rdf:type mms:DataElement ;
  mms:context <http://rdf.cdisc.org/std/cdash-1-1#Domain.AE> ;
  mms:dataElementDescription "Used when the occurrence of a specific adverse event is solicited to indicate whether or not (N/Y) the event (AETERM) occurred."^^xsd:string ;
  mms:dataElementLabel "<specific adverse event> Example: High blood pressure"^^xsd:string ;
  mms:dataElementName "AEOCCUR"^^xsd:string ;
  mms:dataElementType "xsd:string"^^xsd:anySimpleType ;
  mms:dataElementValueDomain sdtmct:C66742 ;
  mms:ordinal "4"^^xsd:positiveInteger ;
  cdiscs:completionInstructions "Please indicate if <specificadverse event> has occurred/is occurring by checking \"Yes\" or \"No\"."^^xsd:string ;
  cdiscs:controlledTermsOrFormat "NY"^^xsd:string ;
  cdiscs:prompt "<specific adverse event> Example: High blood pressure"^^xsd:string ;
  cdiscs:questionText "Does the subject have <specific adverse event>? Example: Does the subject have high blood pressure?"^^xsd:string ;
.
<http://rdf.cdisc.org/std/cdash-1-1#DataElement.AE.AEONGO>
  rdf:type mms:DataElement ;
  mms:context <http://rdf.cdisc.org/std/cdash-1-1#Domain.AE> ;
  mms:dataElementDescription "Indicates AE is ongoing when no End Date is provided."^^xsd:string ;
  mms:dataElementLabel "Ongoing?"^^xsd:string ;
  mms:dataElementName "AEONGO"^^xsd:string ;
  mms:dataElementType "xsd:string"^^xsd:anySimpleType ;
  mms:dataElementValueDomain sdtmct:C66742 ;
  mms:ordinal "9"^^xsd:positiveInteger ;
  cdiscs:completionInstructions "Check the box if the adverse event has not resolved at the time of data collection; leave the End Date blank."^^xsd:string ;
  cdiscs:controlledTermsOrFormat "NY"^^xsd:string ;
  cdiscs:prompt "Ongoing?"^^xsd:string ;
  cdiscs:questionText "Is the adverse event still ongoing?"^^xsd:string ;
.
<http://rdf.cdisc.org/std/cdash-1-1#DataElement.AE.AEOUT>
  rdf:type mms:DataElement ;
  mms:context <http://rdf.cdisc.org/std/cdash-1-1#Domain.AE> ;
  mms:dataElementDescription "Description of the subject's status associated with an event."^^xsd:string ;
  mms:dataElementLabel "Outcome"^^xsd:string ;
  mms:dataElementName "AEOUT"^^xsd:string ;
  mms:dataElementType "xsd:string"^^xsd:anySimpleType ;
  mms:dataElementValueDomain sdtmct:C66768 ;
  mms:ordinal "22"^^xsd:positiveInteger ;
  cdiscs:completionInstructions "Record the appropriate outcome of the event in relation to the subject's status."^^xsd:string ;
  cdiscs:controlledTermsOrFormat "OUT"^^xsd:string ;
  cdiscs:prompt "Outcome"^^xsd:string ;
  cdiscs:questionText "What was the outcome of this adverse event?"^^xsd:string ;
.
<http://rdf.cdisc.org/std/cdash-1-1#DataElement.AE.AEREL>
  rdf:type mms:DataElement ;
  mms:context <http://rdf.cdisc.org/std/cdash-1-1#Domain.AE> ;
  mms:dataElementDescription "Indication of whether the study treatment had a causal effect on the adverse event, as determined by the clinician/investigator."^^xsd:string ;
  mms:dataElementLabel "Relationship to Study Treatment"^^xsd:string ;
  mms:dataElementName "AEREL"^^xsd:string ;
  mms:dataElementType "xsd:string"^^xsd:anySimpleType ;
  mms:ordinal "19"^^xsd:positiveInteger ;
  cdiscs:completionInstructions "Indicate if the cause of the adverse event is related to the study treatment and cannot be reasonably explained by other factors (e.g., subject's clinical state, concomitant therapy, and/or other interventions). "^^xsd:string ;
  cdiscs:prompt "Relationship to Study Treatment"^^xsd:string ;
  cdiscs:questionText "Is this event related to study treatment?"^^xsd:string ;
.
<http://rdf.cdisc.org/std/cdash-1-1#DataElement.AE.AESCONG>
  rdf:type mms:DataElement ;
  mms:context <http://rdf.cdisc.org/std/cdash-1-1#Domain.AE> ;
  mms:dataElementDescription "Indicates if a \"serious\" adverse event was associated with a congenital anomaly or birth defect."^^xsd:string ;
  mms:dataElementLabel "Congenital Anomaly or Birth Defect"^^xsd:string ;
  mms:dataElementName "AESCONG"^^xsd:string ;
  mms:dataElementType "xsd:string"^^xsd:anySimpleType ;
  mms:dataElementValueDomain sdtmct:C66742 ;
  mms:ordinal "13"^^xsd:positiveInteger ;
  cdiscs:completionInstructions "Record whether the \"serious\" adverse event was associated with congenital anomaly or birth defect."^^xsd:string ;
  cdiscs:controlledTermsOrFormat "NY"^^xsd:string ;
  cdiscs:prompt "Congenital Anomaly or Birth Defect"^^xsd:string ;
  cdiscs:questionText "Is the adverse event associated with a congenital anomaly or birth defect?"^^xsd:string ;
.
<http://rdf.cdisc.org/std/cdash-1-1#DataElement.AE.AESDISAB>
  rdf:type mms:DataElement ;
  mms:context <http://rdf.cdisc.org/std/cdash-1-1#Domain.AE> ;
  mms:dataElementDescription "Indicates if a \"serious\" adverse event was associated with a persistent or significant disability or incapacity."^^xsd:string ;
  mms:dataElementLabel "Significant Disability"^^xsd:string ;
  mms:dataElementName "AESDISAB"^^xsd:string ;
  mms:dataElementType "xsd:string"^^xsd:anySimpleType ;
  mms:dataElementValueDomain sdtmct:C66742 ;
  mms:ordinal "14"^^xsd:positiveInteger ;
  cdiscs:completionInstructions "Record whether the \"serious\" adverse event resulted in a persistent or significant disability or incapacity."^^xsd:string ;
  cdiscs:controlledTermsOrFormat "NY"^^xsd:string ;
  cdiscs:prompt "Significant Disability"^^xsd:string ;
  cdiscs:questionText "Did the adverse event result in Persistent or significant disability or incapacity?"^^xsd:string ;
.
<http://rdf.cdisc.org/std/cdash-1-1#DataElement.AE.AESDTH>
  rdf:type mms:DataElement ;
  mms:context <http://rdf.cdisc.org/std/cdash-1-1#Domain.AE> ;
  mms:dataElementDescription "Indicates if a \"serious\" adverse event resulted in death."^^xsd:string ;
  mms:dataElementLabel "Death"^^xsd:string ;
  mms:dataElementName "AESDTH"^^xsd:string ;
  mms:dataElementType "xsd:string"^^xsd:anySimpleType ;
  mms:dataElementValueDomain sdtmct:C66742 ;
  mms:ordinal "15"^^xsd:positiveInteger ;
  cdiscs:completionInstructions "Record whether the \"serious\" adverse event resulted in death."^^xsd:string ;
  cdiscs:controlledTermsOrFormat "NY"^^xsd:string ;
  cdiscs:prompt "Death"^^xsd:string ;
  cdiscs:questionText "Did the adverse event result in death?"^^xsd:string ;
.
<http://rdf.cdisc.org/std/cdash-1-1#DataElement.AE.AESER>
  rdf:type mms:DataElement ;
  mms:context <http://rdf.cdisc.org/std/cdash-1-1#Domain.AE> ;
  mms:dataElementDescription "Indicates whether or not the adverse event is determined to be \"serious\" based on what is defined in the protocol."^^xsd:string ;
  mms:dataElementLabel "Serious"^^xsd:string ;
  mms:dataElementName "AESER"^^xsd:string ;
  mms:dataElementType "xsd:string"^^xsd:anySimpleType ;
  mms:dataElementValueDomain sdtmct:C66742 ;
  mms:ordinal "12"^^xsd:positiveInteger ;
  cdiscs:completionInstructions "Assess if an adverse event should be classified as serious based on the \"serious\" criteria defined in the protocol."^^xsd:string ;
  cdiscs:controlledTermsOrFormat "NY"^^xsd:string ;
  cdiscs:prompt "Serious"^^xsd:string ;
  cdiscs:questionText "Is the adverse event serious?"^^xsd:string ;
.
<http://rdf.cdisc.org/std/cdash-1-1#DataElement.AE.AESEV>
  rdf:type mms:DataElement ;
  mms:context <http://rdf.cdisc.org/std/cdash-1-1#Domain.AE> ;
  mms:dataElementDescription "Description of the severity of the adverse event."^^xsd:string ;
  mms:dataElementLabel "Severity"^^xsd:string ;
  mms:dataElementName "AESEV"^^xsd:string ;
  mms:dataElementType "xsd:string"^^xsd:anySimpleType ;
  mms:dataElementValueDomain sdtmct:C66769 ;
  mms:ordinal "10"^^xsd:positiveInteger ;
  cdiscs:completionInstructions "The reporting physician/healthcare professional will assess the severity of the event using the sponsor-defined categories.  This assessment is subjective and the reporting physician/ healthcare professional should use medical judgment to compare the reported Adverse Event to similar type events observed in clinical practice.  Severity is not equivalent to seriousness."^^xsd:string ;
  cdiscs:controlledTermsOrFormat "AESEV"^^xsd:string ;
  cdiscs:prompt "Severity"^^xsd:string ;
  cdiscs:questionText "What was the severity of the adverse event?"^^xsd:string ;
.
<http://rdf.cdisc.org/std/cdash-1-1#DataElement.AE.AESHOSP>
  rdf:type mms:DataElement ;
  mms:context <http://rdf.cdisc.org/std/cdash-1-1#Domain.AE> ;
  mms:dataElementDescription "Indicates if a \"serious\" adverse event resulted in an initial or prolonged hospitalization."^^xsd:string ;
  mms:dataElementLabel "Hospitalization"^^xsd:string ;
  mms:dataElementName "AESHOSP"^^xsd:string ;
  mms:dataElementType "xsd:string"^^xsd:anySimpleType ;
  mms:dataElementValueDomain sdtmct:C66742 ;
  mms:ordinal "16"^^xsd:positiveInteger ;
  cdiscs:completionInstructions "Record whether the \"serious\" adverse event resulted in an initial or prolonged hospitalization."^^xsd:string ;
  cdiscs:controlledTermsOrFormat "NY"^^xsd:string ;
  cdiscs:prompt "Hospitalization"^^xsd:string ;
  cdiscs:questionText "Did the adverse event result in initial or prolonged hospitalization for the subject?"^^xsd:string ;
.
<http://rdf.cdisc.org/std/cdash-1-1#DataElement.AE.AESLIFE>
  rdf:type mms:DataElement ;
  mms:context <http://rdf.cdisc.org/std/cdash-1-1#Domain.AE> ;
  mms:dataElementDescription "Indicates if a \"serious\" adverse event was life threatening."^^xsd:string ;
  mms:dataElementLabel "Life threatening"^^xsd:string ;
  mms:dataElementName "AESLIFE"^^xsd:string ;
  mms:dataElementType "xsd:string"^^xsd:anySimpleType ;
  mms:dataElementValueDomain sdtmct:C66742 ;
  mms:ordinal "17"^^xsd:positiveInteger ;
  cdiscs:completionInstructions "Record whether the \"serious\" adverse event is life threatening."^^xsd:string ;
  cdiscs:controlledTermsOrFormat "NY"^^xsd:string ;
  cdiscs:prompt "Life threatening"^^xsd:string ;
  cdiscs:questionText "Is the adverse event Life Threatening?"^^xsd:string ;
.
<http://rdf.cdisc.org/std/cdash-1-1#DataElement.AE.AESMIE>
  rdf:type mms:DataElement ;
  mms:context <http://rdf.cdisc.org/std/cdash-1-1#Domain.AE> ;
  mms:dataElementDescription "Indicates if a \"serious\" adverse event is associated with other serious or important medical events."^^xsd:string ;
  mms:dataElementLabel "Other Medically Important Event"^^xsd:string ;
  mms:dataElementName "AESMIE"^^xsd:string ;
  mms:dataElementType "xsd:string"^^xsd:anySimpleType ;
  mms:dataElementValueDomain sdtmct:C66742 ;
  mms:ordinal "18"^^xsd:positiveInteger ;
  cdiscs:completionInstructions "Record whether the \"serious\" adverse event is an important medical event, which may be defined in the protocol or in the Investigator Brochure."^^xsd:string ;
  cdiscs:controlledTermsOrFormat "NY"^^xsd:string ;
  cdiscs:prompt "Other Medically Important Event"^^xsd:string ;
  cdiscs:questionText "Is the adverse event a medically important event not covered by ther \"serious\" criteria?"^^xsd:string ;
.
<http://rdf.cdisc.org/std/cdash-1-1#DataElement.AE.AESPID>
  rdf:type mms:DataElement ;
  mms:context <http://rdf.cdisc.org/std/cdash-1-1#Domain.AE> ;
  mms:dataElementDescription "A sponsor-defined identifier that can be used for pre-printed numbers on the CRF."^^xsd:string ;
  mms:dataElementLabel "<line number> or <AE number>"^^xsd:string ;
  mms:dataElementName "AESPID"^^xsd:string ;
  mms:dataElementType "xsd:string"^^xsd:anySimpleType ;
  mms:ordinal "2"^^xsd:positiveInteger ;
  cdiscs:completionInstructions "Example instruction: Record unique identifier for each adverse event for this subject. Number sequence for all following pages should not duplicate existing numbers for the subject."^^xsd:string ;
  cdiscs:prompt "<line number> or <AE number>"^^xsd:string ;
  cdiscs:questionText "AE Identifier"^^xsd:string ;
.
<http://rdf.cdisc.org/std/cdash-1-1#DataElement.AE.AESTDAT>
  rdf:type mms:DataElement ;
  mms:context <http://rdf.cdisc.org/std/cdash-1-1#Domain.AE> ;
  mms:dataElementDescription "Date when the adverse event started."^^xsd:string ;
  mms:dataElementLabel "Start Date"^^xsd:string ;
  mms:dataElementName "AESTDAT"^^xsd:string ;
  mms:dataElementType "xsd:date"^^xsd:anySimpleType ;
  mms:ordinal "5"^^xsd:positiveInteger ;
  cdiscs:completionInstructions "Record the start date of the AE using this format (DD- MON-YYYY)."^^xsd:string ;
  cdiscs:prompt "Start Date"^^xsd:string ;
  cdiscs:questionText "What is the date the adverse event started?"^^xsd:string ;
.
<http://rdf.cdisc.org/std/cdash-1-1#DataElement.AE.AESTTIM>
  rdf:type mms:DataElement ;
  mms:context <http://rdf.cdisc.org/std/cdash-1-1#Domain.AE> ;
  mms:dataElementDescription "Time when the adverse event started."^^xsd:string ;
  mms:dataElementLabel "Start Time"^^xsd:string ;
  mms:dataElementName "AESTTIM"^^xsd:string ;
  mms:dataElementType "xsd:time"^^xsd:anySimpleType ;
  mms:ordinal "6"^^xsd:positiveInteger ;
  cdiscs:completionInstructions "If appropriate, record the time (as complete as possible) that the AE began."^^xsd:string ;
  cdiscs:prompt "Start Time"^^xsd:string ;
  cdiscs:questionText "At what time did the adverse event start?"^^xsd:string ;
.
<http://rdf.cdisc.org/std/cdash-1-1#DataElement.AE.AETERM>
  rdf:type mms:DataElement ;
  mms:context <http://rdf.cdisc.org/std/cdash-1-1#Domain.AE> ;
  mms:dataElementDescription "Verbatim (i.e., investigator-reported term) description of the adverse event."^^xsd:string ;
  mms:dataElementLabel "Adverse Event"^^xsd:string ;
  mms:dataElementName "AETERM"^^xsd:string ;
  mms:dataElementType "xsd:string"^^xsd:anySimpleType ;
  mms:ordinal "3"^^xsd:positiveInteger ;
  cdiscs:completionInstructions "Record only one diagnosis, sign or symptom per line (e.g., nausea and vomiting should not be recorded in the same entry, but as two separate entries). Using accepted medical terminology, enter the diagnosis (if known); otherwise enter a sign or symptom.  If a diagnosis subsequently becomes available, then this diagnosis should be entered on the AE form, replacing the original entries, where appropriate. Death should not be recorded as an event but should be recorded as the outcome of the event.  The condition that resulted in the death should be recorded as the event. Do not use abbreviations."^^xsd:string ;
  cdiscs:prompt "Adverse Event"^^xsd:string ;
  cdiscs:questionText "What is the adverse event term?"^^xsd:string ;
.
<http://rdf.cdisc.org/std/cdash-1-1#DataElement.AE.AETOXGR>
  rdf:type mms:DataElement ;
  mms:context <http://rdf.cdisc.org/std/cdash-1-1#Domain.AE> ;
  mms:dataElementDescription "Description of the toxicity grade of the adverse event."^^xsd:string ;
  mms:dataElementLabel "Toxicity Grade"^^xsd:string ;
  mms:dataElementName "AETOXGR"^^xsd:string ;
  mms:dataElementType "xsd:string"^^xsd:anySimpleType ;
  mms:dataElementValueDomain sdtmct:C66784 ;
  mms:ordinal "11"^^xsd:positiveInteger ;
  cdiscs:completionInstructions "Severity CTCAE Grade The reporting physician/healthcare  professional will assess the event using the toxicity grades."^^xsd:string ;
  cdiscs:controlledTermsOrFormat "TOXGR"^^xsd:string ;
  cdiscs:prompt "Toxicity Grade"^^xsd:string ;
  cdiscs:questionText "What is the toxicity grade of the adverse event?"^^xsd:string ;
.
<http://rdf.cdisc.org/std/cdash-1-1#DataElement.AE.AEYN>
  rdf:type mms:DataElement ;
  mms:context <http://rdf.cdisc.org/std/cdash-1-1#Domain.AE> ;
  mms:dataElementDescription "General prompt question regarding whether or not any AEs were experienced during the study.  This provides verification that all other fields on the CRF were deliberately left blank."^^xsd:string ;
  mms:dataElementLabel "Any AEs?"^^xsd:string ;
  mms:dataElementName "AEYN"^^xsd:string ;
  mms:dataElementType "xsd:string"^^xsd:anySimpleType ;
  mms:dataElementValueDomain sdtmct:C66742 ;
  mms:ordinal "1"^^xsd:positiveInteger ;
  cdiscs:completionInstructions "Indicate if the subject experienced any adverse events.  If yes, include the appropriate details where indicated on the CRF."^^xsd:string ;
  cdiscs:controlledTermsOrFormat "NY"^^xsd:string ;
  cdiscs:prompt "Any AEs?"^^xsd:string ;
  cdiscs:questionText "Were any adverse events experienced?"^^xsd:string ;
.
<http://rdf.cdisc.org/std/cdash-1-1#DataElement.CM.CMAENO>
  rdf:type mms:DataElement ;
  mms:context <http://rdf.cdisc.org/std/cdash-1-1#Domain.CM> ;
  mms:dataElementDescription "Identifier for the adverse event that is the indication for this medication."^^xsd:string ;
  mms:dataElementLabel "AE ID"^^xsd:string ;
  mms:dataElementName "CMAENO"^^xsd:string ;
  mms:dataElementType "xsd:string"^^xsd:anySimpleType ;
  mms:ordinal "7"^^xsd:positiveInteger ;
  cdiscs:completionInstructions "Record the identifier of the Adverse Event for which this medication was taken."^^xsd:string ;
  cdiscs:prompt "AE ID"^^xsd:string ;
  cdiscs:questionText "What was the ID for the adverse event(s) for which the medication was taken?"^^xsd:string ;
.
<http://rdf.cdisc.org/std/cdash-1-1#DataElement.CM.CMDOSFRM>
  rdf:type mms:DataElement ;
  mms:context <http://rdf.cdisc.org/std/cdash-1-1#Domain.CM> ;
  mms:dataElementDescription "Name of the pharmaceutical dosage form (e.g., TABLET CAPSULE, SYRUP) of delivery for the drug."^^xsd:string ;
  mms:dataElementLabel "Dose Form"^^xsd:string ;
  mms:dataElementName "CMDOSFRM"^^xsd:string ;
  mms:dataElementType "xsd:string"^^xsd:anySimpleType ;
  mms:dataElementValueDomain cdashct:C78418 ;
  mms:ordinal "12"^^xsd:positiveInteger ;
  cdiscs:completionInstructions "Record the pharmaceutical dosage form (e.g., TABLET CAPSULE, SYRUP) of delivery for the medication taken."^^xsd:string ;
  cdiscs:controlledTermsOrFormat "FRM"^^xsd:string ;
  cdiscs:prompt "Dose Form"^^xsd:string ;
  cdiscs:questionText "What was the dose form of the medication/ therapy?"^^xsd:string ;
.
<http://rdf.cdisc.org/std/cdash-1-1#DataElement.CM.CMDOSFRQ>
  rdf:type mms:DataElement ;
  mms:context <http://rdf.cdisc.org/std/cdash-1-1#Domain.CM> ;
  mms:dataElementDescription "How often the medication was taken (e.g., BID, PRN)."^^xsd:string ;
  mms:dataElementLabel "Frequency"^^xsd:string ;
  mms:dataElementName "CMDOSFRQ"^^xsd:string ;
  mms:dataElementType "xsd:string"^^xsd:anySimpleType ;
  mms:dataElementValueDomain cdashct:C78419 ;
  mms:ordinal "13"^^xsd:positiveInteger ;
  cdiscs:completionInstructions "Record how often the medication or therapy was taken.  (e.g., BID, PRN)."^^xsd:string ;
  cdiscs:controlledTermsOrFormat "FREQ"^^xsd:string ;
  cdiscs:prompt "Frequency"^^xsd:string ;
  cdiscs:questionText "What was the frequency of the medication /therapy?"^^xsd:string ;
.
<http://rdf.cdisc.org/std/cdash-1-1#DataElement.CM.CMDOSTOT>
  rdf:type mms:DataElement ;
  mms:context <http://rdf.cdisc.org/std/cdash-1-1#Domain.CM> ;
  mms:dataElementDescription "Total daily dose taken."^^xsd:string ;
  mms:dataElementLabel "Total Daily Dose"^^xsd:string ;
  mms:dataElementName "CMDOSTOT"^^xsd:string ;
  mms:dataElementType "xsd:decimal"^^xsd:anySimpleType ;
  mms:ordinal "10"^^xsd:positiveInteger ;
  cdiscs:completionInstructions "Record the total dose of medication taken daily."^^xsd:string ;
  cdiscs:prompt "Total Daily Dose"^^xsd:string ;
  cdiscs:questionText "What was the total daily dose of the medication/therapy?"^^xsd:string ;
.
<http://rdf.cdisc.org/std/cdash-1-1#DataElement.CM.CMDOSU>
  rdf:type mms:DataElement ;
  mms:context <http://rdf.cdisc.org/std/cdash-1-1#Domain.CM> ;
  mms:dataElementDescription "The unit associated with the medication taken (e.g., mg in \"2mg three times per day\")."^^xsd:string ;
  mms:dataElementLabel "Dose Unit"^^xsd:string ;
  mms:dataElementName "CMDOSU"^^xsd:string ;
  mms:dataElementType "xsd:string"^^xsd:anySimpleType ;
  mms:dataElementValueDomain cdashct:C78417 ;
  mms:ordinal "11"^^xsd:positiveInteger ;
  cdiscs:completionInstructions "Record the dose unit of the dose of medication taken (e.g., mg.)."^^xsd:string ;
  cdiscs:controlledTermsOrFormat "UNIT"^^xsd:string ;
  cdiscs:prompt "Dose Unit"^^xsd:string ;
  cdiscs:questionText "What was the unit of the medication/therapy?"^^xsd:string ;
.
<http://rdf.cdisc.org/std/cdash-1-1#DataElement.CM.CMDSTXT>
  rdf:type mms:DataElement ;
  mms:context <http://rdf.cdisc.org/std/cdash-1-1#Domain.CM> ;
  mms:dataElementDescription "The dose of medication taken per administration."^^xsd:string ;
  mms:dataElementLabel "Dose"^^xsd:string ;
  mms:dataElementName "CMDSTXT"^^xsd:string ;
  mms:dataElementType "xsd:string"^^xsd:anySimpleType ;
  mms:ordinal "9"^^xsd:positiveInteger ;
  cdiscs:completionInstructions "Record the dose of medication taken per administration (e.g., 200)."^^xsd:string ;
  cdiscs:prompt "Dose"^^xsd:string ;
  cdiscs:questionText "What was the individual dose of the medication/therapy?"^^xsd:string ;
.
<http://rdf.cdisc.org/std/cdash-1-1#DataElement.CM.CMENDAT>
  rdf:type mms:DataElement ;
  mms:context <http://rdf.cdisc.org/std/cdash-1-1#Domain.CM> ;
  mms:dataElementDescription "Date that the subject stopped taking the medication or therapy."^^xsd:string ;
  mms:dataElementLabel "End Date"^^xsd:string ;
  mms:dataElementName "CMENDAT"^^xsd:string ;
  mms:dataElementType "xsd:date"^^xsd:anySimpleType ;
  mms:ordinal "18"^^xsd:positiveInteger ;
  cdiscs:completionInstructions "Record the date the subject stopped taking the medication or therapy using this format (DD- MON-YYYY). If the subject has not stopped taking the medication leave this field blank."^^xsd:string ;
  cdiscs:prompt "End Date"^^xsd:string ;
  cdiscs:questionText "What was the end date of the medication/therapy?"^^xsd:string ;
.
<http://rdf.cdisc.org/std/cdash-1-1#DataElement.CM.CMENTIM>
  rdf:type mms:DataElement ;
  mms:context <http://rdf.cdisc.org/std/cdash-1-1#Domain.CM> ;
  mms:dataElementDescription "Time when the subject stopped taking the medication or therapy."^^xsd:string ;
  mms:dataElementLabel "End Time"^^xsd:string ;
  mms:dataElementName "CMENTIM"^^xsd:string ;
  mms:dataElementType "xsd:time"^^xsd:anySimpleType ;
  mms:ordinal "19"^^xsd:positiveInteger ;
  cdiscs:completionInstructions "Record the time (as complete as possible) that the medication or therapy was stopped."^^xsd:string ;
  cdiscs:prompt "End Time"^^xsd:string ;
  cdiscs:questionText "What was the end time of the medication/therapy?"^^xsd:string ;
.
<http://rdf.cdisc.org/std/cdash-1-1#DataElement.CM.CMINDC>
  rdf:type mms:DataElement ;
  mms:context <http://rdf.cdisc.org/std/cdash-1-1#Domain.CM> ;
  mms:dataElementDescription "The reason for administration of a concomitant (non-study) medication.  (e.g., Nausea, Hypertension) This is not the pharmacological/therapeutic classification of an agent (e.g., antibiotic, analgesic, etc.), but the reason for its administration to the subject."^^xsd:string ;
  mms:dataElementLabel "Indication"^^xsd:string ;
  mms:dataElementName "CMINDC"^^xsd:string ;
  mms:dataElementType "xsd:string"^^xsd:anySimpleType ;
  mms:ordinal "6"^^xsd:positiveInteger ;
  cdiscs:completionInstructions "Record the reason the medication was taken based on clinical investigator's evaluation. If taken to treat a condition, and a diagnosis was made, the indication should be the diagnosis. If taken to treat a condition, and no diagnosis was made, the indication should be the signs and symptoms. If taken as prophylaxis, report as \"Prophylaxis for...\""^^xsd:string ;
  cdiscs:prompt "Indication"^^xsd:string ;
  cdiscs:questionText "For what indication was the medication/ therapy taken?"^^xsd:string ;
.
<http://rdf.cdisc.org/std/cdash-1-1#DataElement.CM.CMINGRD>
  rdf:type mms:DataElement ;
  mms:context <http://rdf.cdisc.org/std/cdash-1-1#Domain.CM> ;
  mms:dataElementDescription "Medication Ingredients."^^xsd:string ;
  mms:dataElementLabel "Active Ingredients"^^xsd:string ;
  mms:dataElementName "CMINGRD"^^xsd:string ;
  mms:dataElementType "xsd:string"^^xsd:anySimpleType ;
  mms:ordinal "5"^^xsd:positiveInteger ;
  cdiscs:completionInstructions "Prior to a subject's clinical visit, remind all subjects to bring all medications bottles, packs etc. they are taking with them to their clinical visit. Record all active ingredient(s) off the medication label and separate each ingredient with a comma for the name of drug medication or therapy taken. For example, the medication Dolmen, if manufactured in Spain, the active ingredients should be collected as noted below: Active Ingredient: Acetylsalicylic Acid, Ascorbic acid, codeine phosphate."^^xsd:string ;
  cdiscs:prompt "Active Ingredients"^^xsd:string ;
  cdiscs:questionText "What were the active ingredients?"^^xsd:string ;
.
<http://rdf.cdisc.org/std/cdash-1-1#DataElement.CM.CMMHNO>
  rdf:type mms:DataElement ;
  mms:context <http://rdf.cdisc.org/std/cdash-1-1#Domain.CM> ;
  mms:dataElementDescription "Identifier for the medical history condition that is the indication for this medication."^^xsd:string ;
  mms:dataElementLabel "MH ID"^^xsd:string ;
  mms:dataElementName "CMMHNO"^^xsd:string ;
  mms:dataElementType "xsd:string"^^xsd:anySimpleType ;
  mms:ordinal "8"^^xsd:positiveInteger ;
  cdiscs:completionInstructions "Record the identifier of the medical history event for which this medication was taken."^^xsd:string ;
  cdiscs:prompt "MH ID"^^xsd:string ;
  cdiscs:questionText "What was the ID of the medical history condition(s) for which the medication was taken?"^^xsd:string ;
.
<http://rdf.cdisc.org/std/cdash-1-1#DataElement.CM.CMOCCUR>
  rdf:type mms:DataElement ;
  mms:context <http://rdf.cdisc.org/std/cdash-1-1#Domain.CM> ;
  mms:dataElementDescription "Used when the occurrence of a specific medication or treatment is solicited to indicate whether or not (N/Y) the treatment or medication (CMTRT) was taken or given. This field can be used for either prior or concomitant medication/treatments."^^xsd:string ;
  mms:dataElementLabel "<specific medication/treatment>"^^xsd:string ;
  mms:dataElementName "CMOCCUR"^^xsd:string ;
  mms:dataElementType "xsd:string"^^xsd:anySimpleType ;
  mms:dataElementValueDomain sdtmct:C66742 ;
  mms:ordinal "4"^^xsd:positiveInteger ;
  cdiscs:completionInstructions "Please indicate if <specific medication/treatment> was taken by checking \"Yes\" or \"No\"."^^xsd:string ;
  cdiscs:controlledTermsOrFormat "NY"^^xsd:string ;
  cdiscs:prompt "<specific medication/treatment>"^^xsd:string ;
  cdiscs:questionText "Did the subject take <specific medication/treatment>? or Has the subject taken <specific medication/treatment >?"^^xsd:string ;
.
<http://rdf.cdisc.org/std/cdash-1-1#DataElement.CM.CMONGO>
  rdf:type mms:DataElement ;
  mms:context <http://rdf.cdisc.org/std/cdash-1-1#Domain.CM> ;
  mms:dataElementDescription "Indicates medication or therapy is ongoing when no End Date is provided.  (See Section 2.2)"^^xsd:string ;
  mms:dataElementLabel "Ongoing"^^xsd:string ;
  mms:dataElementName "CMONGO"^^xsd:string ;
  mms:dataElementType "xsd:string"^^xsd:anySimpleType ;
  mms:dataElementValueDomain sdtmct:C66742 ;
  mms:ordinal "20"^^xsd:positiveInteger ;
  cdiscs:completionInstructions "Record the medication or therapy as ongoing if the subject has not stopped taking the medication or therapy at the time of data collection and the end date should be left blank."^^xsd:string ;
  cdiscs:controlledTermsOrFormat "NY"^^xsd:string ;
  cdiscs:prompt "Ongoing"^^xsd:string ;
  cdiscs:questionText "Is the medication /therapy still ongoing?"^^xsd:string ;
.
<http://rdf.cdisc.org/std/cdash-1-1#DataElement.CM.CMPRIOR>
  rdf:type mms:DataElement ;
  mms:context <http://rdf.cdisc.org/std/cdash-1-1#Domain.CM> ;
  mms:dataElementDescription "To determine if medications were taken prior to study start."^^xsd:string ;
  mms:dataElementLabel "Taken Prior to Study?"^^xsd:string ;
  mms:dataElementName "CMPRIOR"^^xsd:string ;
  mms:dataElementType "xsd:string"^^xsd:anySimpleType ;
  mms:dataElementValueDomain sdtmct:C66742 ;
  mms:ordinal "17"^^xsd:positiveInteger ;
  cdiscs:completionInstructions "Check if the medication or therapy was started before the study."^^xsd:string ;
  cdiscs:controlledTermsOrFormat "NY"^^xsd:string ;
  cdiscs:prompt "Taken Prior to Study?"^^xsd:string ;
  cdiscs:questionText "Was the medication/therapy taken prior to the study?"^^xsd:string ;
.
<http://rdf.cdisc.org/std/cdash-1-1#DataElement.CM.CMROUTE>
  rdf:type mms:DataElement ;
  mms:context <http://rdf.cdisc.org/std/cdash-1-1#Domain.CM> ;
  mms:dataElementDescription "Identifies the route of administration of the drug."^^xsd:string ;
  mms:dataElementLabel "Route"^^xsd:string ;
  mms:dataElementName "CMROUTE"^^xsd:string ;
  mms:dataElementType "xsd:string"^^xsd:anySimpleType ;
  mms:dataElementValueDomain cdashct:C78420 ;
  mms:ordinal "14"^^xsd:positiveInteger ;
  cdiscs:completionInstructions "Provide the route of administration for the drug."^^xsd:string ;
  cdiscs:controlledTermsOrFormat "ROUTE"^^xsd:string ;
  cdiscs:prompt "Route"^^xsd:string ;
  cdiscs:questionText "What was the route of administration of the medication/therapy?"^^xsd:string ;
.
<http://rdf.cdisc.org/std/cdash-1-1#DataElement.CM.CMSPID>
  rdf:type mms:DataElement ;
  mms:context <http://rdf.cdisc.org/std/cdash-1-1#Domain.CM> ;
  mms:dataElementDescription "A sponsor-defined identifier which can be used for pre-printed numbers on the CRF."^^xsd:string ;
  mms:dataElementLabel "<line number> or <CM number>"^^xsd:string ;
  mms:dataElementName "CMSPID"^^xsd:string ;
  mms:dataElementType "xsd:string"^^xsd:anySimpleType ;
  mms:ordinal "2"^^xsd:positiveInteger ;
  cdiscs:completionInstructions "Example instruction: Record unique identifier for each medication for this subject. Number sequence for all following pages should not duplicate existing numbers for the subject."^^xsd:string ;
  cdiscs:prompt "<line number> or <CM number>"^^xsd:string ;
  cdiscs:questionText "What is the medication/treatment identifier?"^^xsd:string ;
.
<http://rdf.cdisc.org/std/cdash-1-1#DataElement.CM.CMSTDAT>
  rdf:type mms:DataElement ;
  mms:context <http://rdf.cdisc.org/std/cdash-1-1#Domain.CM> ;
  mms:dataElementDescription "Date when the medication was first taken."^^xsd:string ;
  mms:dataElementLabel "Start Date"^^xsd:string ;
  mms:dataElementName "CMSTDAT"^^xsd:string ;
  mms:dataElementType "xsd:date"^^xsd:anySimpleType ;
  mms:ordinal "15"^^xsd:positiveInteger ;
  cdiscs:completionInstructions "Record the date the medication or therapy was first taken using this format (DD-MON- YYYY). If the subject has been taking the medication for a considerable amount of time prior to the start of the study, it is acceptable to have an incomplete date.  Medications taken during the study are expected to have a complete start date. Prior medications that are exclusionary should have both a start and end date."^^xsd:string ;
  cdiscs:prompt "Start Date"^^xsd:string ;
  cdiscs:questionText "What was the start date of the medication/therapy?"^^xsd:string ;
.
<http://rdf.cdisc.org/std/cdash-1-1#DataElement.CM.CMSTTIM>
  rdf:type mms:DataElement ;
  mms:context <http://rdf.cdisc.org/std/cdash-1-1#Domain.CM> ;
  mms:dataElementDescription "Time the medication was started."^^xsd:string ;
  mms:dataElementLabel "Start Time"^^xsd:string ;
  mms:dataElementName "CMSTTIM"^^xsd:string ;
  mms:dataElementType "xsd:time"^^xsd:anySimpleType ;
  mms:ordinal "16"^^xsd:positiveInteger ;
  cdiscs:completionInstructions "Record the time (as complete as possible) that the medication or therapy was started."^^xsd:string ;
  cdiscs:prompt "Start Time"^^xsd:string ;
  cdiscs:questionText "What was the start time of the medication/therapy?"^^xsd:string ;
.
<http://rdf.cdisc.org/std/cdash-1-1#DataElement.CM.CMTRT>
  rdf:type mms:DataElement ;
  mms:context <http://rdf.cdisc.org/std/cdash-1-1#Domain.CM> ;
  mms:dataElementDescription "Verbatim drug name or therapy (include only therapies with data collection characteristics similar medications)."^^xsd:string ;
  mms:dataElementLabel "Medication or Therapy"^^xsd:string ;
  mms:dataElementName "CMTRT"^^xsd:string ;
  mms:dataElementType "xsd:string"^^xsd:anySimpleType ;
  mms:ordinal "3"^^xsd:positiveInteger ;
  cdiscs:completionInstructions "Record only one medication per line. Provide the full trade or proprietary name of the drug or therapy; otherwise the generic name may be recorded."^^xsd:string ;
  cdiscs:prompt "Medication or Therapy"^^xsd:string ;
  cdiscs:questionText "What was the term for the medication/ therapy taken? or What was the term for the medication taken?"^^xsd:string ;
.
<http://rdf.cdisc.org/std/cdash-1-1#DataElement.CM.CMYN>
  rdf:type mms:DataElement ;
  mms:context <http://rdf.cdisc.org/std/cdash-1-1#Domain.CM> ;
  mms:dataElementDescription "General prompt question to aid in monitoring and data cleaning."^^xsd:string ;
  mms:dataElementLabel "Any meds?"^^xsd:string ;
  mms:dataElementName "CMYN"^^xsd:string ;
  mms:dataElementType "xsd:string"^^xsd:anySimpleType ;
  mms:dataElementValueDomain sdtmct:C66742 ;
  mms:ordinal "1"^^xsd:positiveInteger ;
  cdiscs:completionInstructions "Indicate if the subject took any medications.  If \"Yes\", include the appropriate details where indicated. "^^xsd:string ;
  cdiscs:controlledTermsOrFormat "NY"^^xsd:string ;
  cdiscs:prompt "Any meds?"^^xsd:string ;
  cdiscs:questionText "Were any medications taken?"^^xsd:string ;
.
<http://rdf.cdisc.org/std/cdash-1-1#DataElement.Common.INVID>
  rdf:type mms:DataElement ;
  mms:context <http://rdf.cdisc.org/std/cdash-1-1#Domain.Common> ;
  mms:dataElementDescription "A unique identifier assigned to an Investigator."^^xsd:string ;
  mms:dataElementLabel "Investigator"^^xsd:string ;
  mms:dataElementName "INVID"^^xsd:string ;
  mms:dataElementType "xsd:string"^^xsd:anySimpleType ;
  mms:ordinal "6"^^xsd:positiveInteger ;
  cdiscs:completionInstructions "Record the sponsor-defined identifier for your site investigator."^^xsd:string ;
  cdiscs:prompt "Investigator"^^xsd:string ;
  cdiscs:questionText "What is the investigator identifier?"^^xsd:string ;
.
<http://rdf.cdisc.org/std/cdash-1-1#DataElement.Common.SITEID>
  rdf:type mms:DataElement ;
  mms:context <http://rdf.cdisc.org/std/cdash-1-1#Domain.Common> ;
  mms:dataElementDescription "Unique identifier for a site within a study."^^xsd:string ;
  mms:dataElementLabel "Site"^^xsd:string ;
  mms:dataElementName "SITEID"^^xsd:string ;
  mms:dataElementType "xsd:string"^^xsd:anySimpleType ;
  mms:ordinal "3"^^xsd:positiveInteger ;
  cdiscs:completionInstructions "Record your clinical site's identifier as defined by the sponsor."^^xsd:string ;
  cdiscs:prompt "Site"^^xsd:string ;
  cdiscs:questionText "What is the site identifier?"^^xsd:string ;
.
<http://rdf.cdisc.org/std/cdash-1-1#DataElement.Common.SPONSOR>
  rdf:type mms:DataElement ;
  mms:context <http://rdf.cdisc.org/std/cdash-1-1#Domain.Common> ;
  mms:dataElementDescription """A unique identifier for a study sponsor.  An individual, company, institution, or organization that takes responsibility for the initiation and management of a clinical trial, although may or may not be the main funding organization. If there is also a secondary sponsor, this entity would be considered the primary sponsor.
A corporation or agency whose employees conduct the investigation is considered a sponsor and the employees are considered investigators."""^^xsd:string ;
  mms:dataElementLabel "Sponsor"^^xsd:string ;
  mms:dataElementName "SPONSOR"^^xsd:string ;
  mms:dataElementType "xsd:string"^^xsd:anySimpleType ;
  mms:ordinal "1"^^xsd:positiveInteger ;
  cdiscs:completionInstructions "Not applicable."^^xsd:string ;
  cdiscs:prompt "Sponsor"^^xsd:string ;
  cdiscs:questionText "What is the sponsor identifier?"^^xsd:string ;
.
<http://rdf.cdisc.org/std/cdash-1-1#DataElement.Common.STUDYID>
  rdf:type mms:DataElement ;
  mms:context <http://rdf.cdisc.org/std/cdash-1-1#Domain.Common> ;
  mms:dataElementDescription "Unique identifier for a study."^^xsd:string ;
  mms:dataElementLabel "Protocol or Study"^^xsd:string ;
  mms:dataElementName "STUDYID"^^xsd:string ;
  mms:dataElementType "xsd:string"^^xsd:anySimpleType ;
  mms:ordinal "2"^^xsd:positiveInteger ;
  cdiscs:completionInstructions "Not applicable."^^xsd:string ;
  cdiscs:prompt "Protocol or Study"^^xsd:string ;
  cdiscs:questionText "What is the study identifier?"^^xsd:string ;
.
<http://rdf.cdisc.org/std/cdash-1-1#DataElement.Common.SUBJID>
  rdf:type mms:DataElement ;
  mms:context <http://rdf.cdisc.org/std/cdash-1-1#Domain.Common> ;
  mms:dataElementDescription "Identifier assigned to each trial subject to protect the subject's identity, and used instead of the subject's name when the Investigator reports trial data."^^xsd:string ;
  mms:dataElementLabel "Subject"^^xsd:string ;
  mms:dataElementName "SUBJID"^^xsd:string ;
  mms:dataElementType "xsd:string"^^xsd:anySimpleType ;
  mms:ordinal "4"^^xsd:positiveInteger ;
  cdiscs:completionInstructions "Record the identifier for the subject."^^xsd:string ;
  cdiscs:prompt "Subject"^^xsd:string ;
  cdiscs:questionText "What is the subject identifier?"^^xsd:string ;
.
<http://rdf.cdisc.org/std/cdash-1-1#DataElement.Common.USUBJID>
  rdf:type mms:DataElement ;
  mms:context <http://rdf.cdisc.org/std/cdash-1-1#Domain.Common> ;
  mms:dataElementDescription "Identifier used to uniquely identify a subject across all studies or all applications or submissions involving the product."^^xsd:string ;
  mms:dataElementLabel "Unique Subject ID"^^xsd:string ;
  mms:dataElementName "USUBJID"^^xsd:string ;
  mms:dataElementType "xsd:string"^^xsd:anySimpleType ;
  mms:ordinal "5"^^xsd:positiveInteger ;
  cdiscs:completionInstructions "Not applicable."^^xsd:string ;
  cdiscs:prompt "Unique Subject ID"^^xsd:string ;
  cdiscs:questionText "For this multi-study subject, what is the unique subject identifier?"^^xsd:string ;
.
<http://rdf.cdisc.org/std/cdash-1-1#DataElement.DA.DACAT>
  rdf:type mms:DataElement ;
  mms:context <http://rdf.cdisc.org/std/cdash-1-1#Domain.DA> ;
  mms:dataElementDescription "Used to define a categorization level for a group of related records."^^xsd:string ;
  mms:dataElementLabel "Treatment Type"^^xsd:string ;
  mms:dataElementName "DACAT"^^xsd:string ;
  mms:dataElementType "xsd:string"^^xsd:anySimpleType ;
  mms:ordinal "2"^^xsd:positiveInteger ;
  cdiscs:completionInstructions "Record the type of study treatment dispensed/returned"^^xsd:string ;
  cdiscs:prompt "Treatment Type"^^xsd:string ;
  cdiscs:questionText "What type of treatment was dispensed or returned?"^^xsd:string ;
.
<http://rdf.cdisc.org/std/cdash-1-1#DataElement.DA.DADAT>
  rdf:type mms:DataElement ;
  mms:context <http://rdf.cdisc.org/std/cdash-1-1#Domain.DA> ;
  mms:dataElementDescription "Date the study treatment was dispensed or returned."^^xsd:string ;
  mms:dataElementLabel "Date <dispensed or returned>"^^xsd:string ;
  mms:dataElementName "DADAT"^^xsd:string ;
  mms:dataElementType "xsd:date"^^xsd:anySimpleType ;
  mms:ordinal "4"^^xsd:positiveInteger ;
  cdiscs:completionInstructions "Record the exact date the study treatment was (dispensed or returned), using this format (DD- MON-YYYY). "^^xsd:string ;
  cdiscs:prompt "Date <dispensed or returned>"^^xsd:string ;
  cdiscs:questionText "What date was the study treatment (dispensed or returned)?"^^xsd:string ;
.
<http://rdf.cdisc.org/std/cdash-1-1#DataElement.DA.DAORRES>
  rdf:type mms:DataElement ;
  mms:context <http://rdf.cdisc.org/std/cdash-1-1#Domain.DA> ;
  mms:dataElementDescription "Result of the Drug Accountability assessment as originally dispensed or returned (e.g., actual amount)."^^xsd:string ;
  mms:dataElementLabel "Amount"^^xsd:string ;
  mms:dataElementName "DAORRES"^^xsd:string ;
  mms:dataElementType "xsd:string"^^xsd:anySimpleType ;
  mms:ordinal "8"^^xsd:positiveInteger ;
  cdiscs:completionInstructions "Record the actual amount of study treatment dispensed or returned."^^xsd:string ;
  cdiscs:prompt "Amount"^^xsd:string ;
  cdiscs:questionText "What is the amount dispensed or the amount returned?"^^xsd:string ;
.
<http://rdf.cdisc.org/std/cdash-1-1#DataElement.DA.DAORRESU>
  rdf:type mms:DataElement ;
  mms:context <http://rdf.cdisc.org/std/cdash-1-1#Domain.DA> ;
  mms:dataElementDescription "Unit for DAORRES (e.g., tablets)."^^xsd:string ;
  mms:dataElementLabel "Units"^^xsd:string ;
  mms:dataElementName "DAORRESU"^^xsd:string ;
  mms:dataElementType "xsd:string"^^xsd:anySimpleType ;
  mms:dataElementValueDomain cdashct:C78421 ;
  mms:ordinal "9"^^xsd:positiveInteger ;
  cdiscs:completionInstructions "Record the units in which the study treatment was dispensed."^^xsd:string ;
  cdiscs:controlledTermsOrFormat "UNIT"^^xsd:string ;
  cdiscs:prompt "Units"^^xsd:string ;
  cdiscs:questionText "What are the units of study treatment dispensed or returned?"^^xsd:string ;
.
<http://rdf.cdisc.org/std/cdash-1-1#DataElement.DA.DAPERF>
  rdf:type mms:DataElement ;
  mms:context <http://rdf.cdisc.org/std/cdash-1-1#Domain.DA> ;
  mms:dataElementDescription "Status of whether or not drug accountability was done."^^xsd:string ;
  mms:dataElementLabel "DA Performed?"^^xsd:string ;
  mms:dataElementName "DAPERF"^^xsd:string ;
  mms:dataElementType "xsd:string"^^xsd:anySimpleType ;
  mms:dataElementValueDomain sdtmct:C66742 ;
  mms:ordinal "1"^^xsd:positiveInteger ;
  cdiscs:completionInstructions "Indicate whether or not drug accountability was done."^^xsd:string ;
  cdiscs:controlledTermsOrFormat "NY"^^xsd:string ;
  cdiscs:prompt "DA Performed?"^^xsd:string ;
  cdiscs:questionText "Was drug accountability performed?"^^xsd:string ;
.
<http://rdf.cdisc.org/std/cdash-1-1#DataElement.DA.DAREFID>
  rdf:type mms:DataElement ;
  mms:context <http://rdf.cdisc.org/std/cdash-1-1#Domain.DA> ;
  mms:dataElementDescription "Treatment label identifier (e.g. kit number, bottle label, vial identifier)."^^xsd:string ;
  mms:dataElementLabel "Treatment label ID"^^xsd:string ;
  mms:dataElementName "DAREFID"^^xsd:string ;
  mms:dataElementType "xsd:string"^^xsd:anySimpleType ;
  mms:ordinal "5"^^xsd:positiveInteger ;
  cdiscs:completionInstructions "Record treatment label identifier."^^xsd:string ;
  cdiscs:prompt "Treatment label ID"^^xsd:string ;
  cdiscs:questionText "What is the treatment label identifier?"^^xsd:string ;
.
<http://rdf.cdisc.org/std/cdash-1-1#DataElement.DA.DASCAT>
  rdf:type mms:DataElement ;
  mms:context <http://rdf.cdisc.org/std/cdash-1-1#Domain.DA> ;
  mms:dataElementDescription "Used to define a further categorization level for a group of related records."^^xsd:string ;
  mms:dataElementLabel "Treatment Name"^^xsd:string ;
  mms:dataElementName "DASCAT"^^xsd:string ;
  mms:dataElementType "xsd:string"^^xsd:anySimpleType ;
  mms:ordinal "3"^^xsd:positiveInteger ;
  cdiscs:completionInstructions "Record the name of the study treatment dispensed/returned (e.g., Bottle A, Bottle B)."^^xsd:string ;
  cdiscs:prompt "Treatment Name"^^xsd:string ;
  cdiscs:questionText "What was the name of the study treatment (dispensed or returned)?"^^xsd:string ;
.
<http://rdf.cdisc.org/std/cdash-1-1#DataElement.DA.DATEST>
  rdf:type mms:DataElement ;
  mms:context <http://rdf.cdisc.org/std/cdash-1-1#Domain.DA> ;
  mms:dataElementDescription "Descriptive name of the measurement or finding, (e.g., dispensed, returned)."^^xsd:string ;
  mms:dataElementLabel "Dispensed or Returned"^^xsd:string ;
  mms:dataElementName "DATEST"^^xsd:string ;
  mms:dataElementType "xsd:string"^^xsd:anySimpleType ;
  mms:dataElementValueDomain sdtmct:C78731 ;
  mms:ordinal "6"^^xsd:positiveInteger ;
  cdiscs:completionInstructions "Not applicable."^^xsd:string ;
  cdiscs:controlledTermsOrFormat "DATEST"^^xsd:string ;
  cdiscs:prompt "Dispensed or Returned"^^xsd:string ;
  cdiscs:questionText "Is this the amount dispensed or the amount returned?"^^xsd:string ;
.
<http://rdf.cdisc.org/std/cdash-1-1#DataElement.DA.DATESTCD>
  rdf:type mms:DataElement ;
  mms:context <http://rdf.cdisc.org/std/cdash-1-1#Domain.DA> ;
  mms:dataElementDescription "Descriptive name of the measurement or finding, (e.g., dispensed, returned)."^^xsd:string ;
  mms:dataElementLabel "Dispensed or Returned"^^xsd:string ;
  mms:dataElementName "DATESTCD"^^xsd:string ;
  mms:dataElementType "xsd:date"^^xsd:anySimpleType ;
  mms:dataElementValueDomain sdtmct:C78732 ;
  mms:ordinal "7"^^xsd:positiveInteger ;
  cdiscs:completionInstructions "Not applicable."^^xsd:string ;
  cdiscs:controlledTermsOrFormat "DATESTCD"^^xsd:string ;
  cdiscs:prompt "Dispensed or Returned"^^xsd:string ;
  cdiscs:questionText "Is this the amount dispensed or the amount returned?"^^xsd:string ;
.
<http://rdf.cdisc.org/std/cdash-1-1#DataElement.DM.AGE>
  rdf:type mms:DataElement ;
  mms:context <http://rdf.cdisc.org/std/cdash-1-1#Domain.DM> ;
  mms:dataElementDescription "Numeric age of subject."^^xsd:string ;
  mms:dataElementLabel "Age"^^xsd:string ;
  mms:dataElementName "AGE"^^xsd:string ;
  mms:dataElementType "xsd:integer"^^xsd:anySimpleType ;
  mms:ordinal "6"^^xsd:positiveInteger ;
  cdiscs:completionInstructions "Record age of the subject."^^xsd:string ;
  cdiscs:prompt "Age"^^xsd:string ;
  cdiscs:questionText "What is the subject's age?"^^xsd:string ;
.
<http://rdf.cdisc.org/std/cdash-1-1#DataElement.DM.AGEU>
  rdf:type mms:DataElement ;
  mms:context <http://rdf.cdisc.org/std/cdash-1-1#Domain.DM> ;
  mms:dataElementDescription "Those units of time that are routinely used to express the age of a person. (NCI)"^^xsd:string ;
  mms:dataElementLabel "Age Unit"^^xsd:string ;
  mms:dataElementName "AGEU"^^xsd:string ;
  mms:dataElementType "xsd:string"^^xsd:anySimpleType ;
  mms:dataElementValueDomain sdtmct:C66781 ;
  mms:ordinal "7"^^xsd:positiveInteger ;
  cdiscs:completionInstructions "Record the appropriate age unit (e.g., YEARS, MONTHS, WEEKS, etc.)."^^xsd:string ;
  cdiscs:controlledTermsOrFormat "AGEU"^^xsd:string ;
  cdiscs:prompt "Age Unit"^^xsd:string ;
  cdiscs:questionText "What is the age unit used?"^^xsd:string ;
.
<http://rdf.cdisc.org/std/cdash-1-1#DataElement.DM.BRTHDAT>
  rdf:type mms:DataElement ;
  mms:context <http://rdf.cdisc.org/std/cdash-1-1#Domain.DM> ;
  mms:dataElementDescription "A subject's date of birth (with or without the time of birth). The complete Date of Birth is made from the temporal components of Birth Year, Birth Month, Birth Day and Birth Time."^^xsd:string ;
  mms:dataElementLabel "Birth Date"^^xsd:string ;
  mms:dataElementName "BRTHDAT"^^xsd:string ;
  mms:dataElementType "xsd:date"^^xsd:anySimpleType ;
  mms:ordinal "1"^^xsd:positiveInteger ;
  cdiscs:completionInstructions "Record the date of birth to the level of precision known (e.g., day/month/year, year, month/year, etc)."^^xsd:string ;
  cdiscs:prompt "Birth Date"^^xsd:string ;
  cdiscs:questionText "What is the subject's date of birth?"^^xsd:string ;
.
<http://rdf.cdisc.org/std/cdash-1-1#DataElement.DM.BRTHDY>
  rdf:type mms:DataElement ;
  mms:context <http://rdf.cdisc.org/std/cdash-1-1#Domain.DM> ;
  mms:dataElementDescription "Numeric day of the month of the subject's birth."^^xsd:string ;
  mms:dataElementLabel "Birth Day"^^xsd:string ;
  mms:dataElementName "BRTHDY"^^xsd:string ;
  mms:dataElementType "xsd:date"^^xsd:anySimpleType ;
  mms:ordinal "4"^^xsd:positiveInteger ;
  cdiscs:completionInstructions "Record the subject's day of birth (e.g., 01-31)."^^xsd:string ;
  cdiscs:prompt "Birth Day"^^xsd:string ;
  cdiscs:questionText "What is the subject's day of birth?"^^xsd:string ;
.
<http://rdf.cdisc.org/std/cdash-1-1#DataElement.DM.BRTHMO>
  rdf:type mms:DataElement ;
  mms:context <http://rdf.cdisc.org/std/cdash-1-1#Domain.DM> ;
  mms:dataElementDescription "Text value for the month of the subject's birth."^^xsd:string ;
  mms:dataElementLabel "Birth Month"^^xsd:string ;
  mms:dataElementName "BRTHMO"^^xsd:string ;
  mms:dataElementType "xsd:date"^^xsd:anySimpleType ;
  mms:ordinal "3"^^xsd:positiveInteger ;
  cdiscs:completionInstructions "Record the subject's month of birth [e.g., (in local language short month format) (JAN- DEC) or (ENE-DIE) or (JAN- DEZ), etc.]."^^xsd:string ;
  cdiscs:prompt "Birth Month"^^xsd:string ;
  cdiscs:questionText "What is the subject's month of birth?"^^xsd:string ;
.
<http://rdf.cdisc.org/std/cdash-1-1#DataElement.DM.BRTHTIM>
  rdf:type mms:DataElement ;
  mms:context <http://rdf.cdisc.org/std/cdash-1-1#Domain.DM> ;
  mms:dataElementDescription "Time of subject's birth."^^xsd:string ;
  mms:dataElementLabel "Birth Time"^^xsd:string ;
  mms:dataElementName "BRTHTIM"^^xsd:string ;
  mms:dataElementType "xsd:time"^^xsd:anySimpleType ;
  mms:ordinal "5"^^xsd:positiveInteger ;
  cdiscs:completionInstructions "Record the time of birth (as completely as possible)."^^xsd:string ;
  cdiscs:prompt "Birth Time"^^xsd:string ;
  cdiscs:questionText "What is the time of the subject's birth?"^^xsd:string ;
.
<http://rdf.cdisc.org/std/cdash-1-1#DataElement.DM.BRTHYR>
  rdf:type mms:DataElement ;
  mms:context <http://rdf.cdisc.org/std/cdash-1-1#Domain.DM> ;
  mms:dataElementDescription "Year of the subject's birth."^^xsd:string ;
  mms:dataElementLabel "Birth Year"^^xsd:string ;
  mms:dataElementName "BRTHYR"^^xsd:string ;
  mms:dataElementType "xsd:date"^^xsd:anySimpleType ;
  mms:ordinal "2"^^xsd:positiveInteger ;
  cdiscs:completionInstructions "Record the subject's year of birth (e.g., YYYY, a four digit year)."^^xsd:string ;
  cdiscs:prompt "Birth Year"^^xsd:string ;
  cdiscs:questionText "What is the subject's year of birth?"^^xsd:string ;
.
<http://rdf.cdisc.org/std/cdash-1-1#DataElement.DM.DMDAT>
  rdf:type mms:DataElement ;
  mms:context <http://rdf.cdisc.org/std/cdash-1-1#Domain.DM> ;
  mms:dataElementDescription "Date of collection."^^xsd:string ;
  mms:dataElementLabel "Collection Date"^^xsd:string ;
  mms:dataElementName "DMDAT"^^xsd:string ;
  mms:dataElementType "xsd:date"^^xsd:anySimpleType ;
  mms:ordinal "8"^^xsd:positiveInteger ;
  cdiscs:completionInstructions "Record the date the demographics data were collected in this format (DD-MON-YYYY)."^^xsd:string ;
  cdiscs:prompt "Collection Date"^^xsd:string ;
  cdiscs:questionText "What is the date of collection?"^^xsd:string ;
.
<http://rdf.cdisc.org/std/cdash-1-1#DataElement.DM.ETHNIC>
  rdf:type mms:DataElement ;
  mms:context <http://rdf.cdisc.org/std/cdash-1-1#Domain.DM> ;
  mms:dataElementDescription "A social group characterized by a distinctive social and cultural tradition maintained from generation to generation, a common history and origin and a sense of identification with the group; members of the group have distinctive features in their way of life, shared experiences and often a common genetic heritage; these features may be reflected in their experience of health and disease (NCI - CDISC Definition)."^^xsd:string ;
  mms:dataElementLabel "Ethnicity"^^xsd:string ;
  mms:dataElementName "ETHNIC"^^xsd:string ;
  mms:dataElementType "xsd:string"^^xsd:anySimpleType ;
  mms:dataElementValueDomain sdtmct:C66790 ;
  mms:ordinal "10"^^xsd:positiveInteger ;
  cdiscs:completionInstructions "Study participants should self-report ethnicity, with ethnicity being asked about before race."^^xsd:string ;
  cdiscs:controlledTermsOrFormat "ETHNIC"^^xsd:string ;
  cdiscs:prompt "Ethnicity"^^xsd:string ;
  cdiscs:questionText "What is the ethnicity of the subject?"^^xsd:string ;
.
<http://rdf.cdisc.org/std/cdash-1-1#DataElement.DM.RACE>
  rdf:type mms:DataElement ;
  mms:context <http://rdf.cdisc.org/std/cdash-1-1#Domain.DM> ;
  mms:dataElementDescription "An arbitrary classification based on physical characteristics; a group of persons related by common descent or heredity (U.S. Center for Disease Control)."^^xsd:string ;
  mms:dataElementLabel "Race"^^xsd:string ;
  mms:dataElementName "RACE"^^xsd:string ;
  mms:dataElementType "xsd:string"^^xsd:anySimpleType ;
  mms:dataElementValueDomain sdtmct:C74457 ;
  mms:ordinal "11"^^xsd:positiveInteger ;
  cdiscs:completionInstructions "Study participants should self-report race, with race being asked about after ethnicity. (The FDA guidance suggests \"that individuals be permitted to designate a multiracial identity\". \"Check all that apply\" at the time of collection.)"^^xsd:string ;
  cdiscs:controlledTermsOrFormat "RACE"^^xsd:string ;
  cdiscs:prompt "Race"^^xsd:string ;
  cdiscs:questionText "What is the race of the subject?"^^xsd:string ;
.
<http://rdf.cdisc.org/std/cdash-1-1#DataElement.DM.RACEOTH>
  rdf:type mms:DataElement ;
  mms:context <http://rdf.cdisc.org/std/cdash-1-1#Domain.DM> ;
  mms:dataElementDescription "A free-text field to be used when none of the pre- printed values for RACE are applicable or if another, unprinted selection should be added to those pre-printed values."^^xsd:string ;
  mms:dataElementLabel "Specify Other"^^xsd:string ;
  mms:dataElementName "RACEOTH"^^xsd:string ;
  mms:dataElementType "xsd:string"^^xsd:anySimpleType ;
  mms:ordinal "12"^^xsd:positiveInteger ;
  cdiscs:completionInstructions "If none of the pre-printed values for RACE are applicable or if another, unprinted selection should be added to those pre- printed values, record the value in this free text field."^^xsd:string ;
  cdiscs:prompt "Specify Other"^^xsd:string ;
  cdiscs:questionText "Specify other race."^^xsd:string ;
.
<http://rdf.cdisc.org/std/cdash-1-1#DataElement.DM.SEX>
  rdf:type mms:DataElement ;
  mms:context <http://rdf.cdisc.org/std/cdash-1-1#Domain.DM> ;
  mms:dataElementDescription "The assemblage of physical properties or qualities by which male is distinguished from female; the physical difference between male and female; the distinguishing peculiarity of male or female (NCI - CDISC Definition)."^^xsd:string ;
  mms:dataElementLabel "Sex"^^xsd:string ;
  mms:dataElementName "SEX"^^xsd:string ;
  mms:dataElementType "xsd:string"^^xsd:anySimpleType ;
  mms:dataElementValueDomain sdtmct:C66731 ;
  mms:ordinal "9"^^xsd:positiveInteger ;
  cdiscs:completionInstructions "Record the appropriate sex (e.g., F (female), M (male)."^^xsd:string ;
  cdiscs:controlledTermsOrFormat "SEX"^^xsd:string ;
  cdiscs:prompt "Sex"^^xsd:string ;
  cdiscs:questionText "What is the sex of the subject?"^^xsd:string ;
.
<http://rdf.cdisc.org/std/cdash-1-1#DataElement.DS.DSCONT>
  rdf:type mms:DataElement ;
  mms:context <http://rdf.cdisc.org/std/cdash-1-1#Domain.DS> ;
  mms:dataElementDescription "Plan for subject continuation to the next phase of the study or another study at the time of completion of the CRF."^^xsd:string ;
  mms:dataElementLabel "Subject Continue"^^xsd:string ;
  mms:dataElementName "DSCONT"^^xsd:string ;
  mms:dataElementType "xsd:string"^^xsd:anySimpleType ;
  mms:dataElementValueDomain sdtmct:C66742 ;
  mms:ordinal "7"^^xsd:positiveInteger ;
  cdiscs:completionInstructions "To the best of your knowledge, record if the subject will be continuing to <the next phase of this study or another related study> (sponsor to specify as appropriate)."^^xsd:string ;
  cdiscs:controlledTermsOrFormat "NY"^^xsd:string ;
  cdiscs:prompt "Subject Continue"^^xsd:string ;
  cdiscs:questionText "Will the subject continue?"^^xsd:string ;
.
<http://rdf.cdisc.org/std/cdash-1-1#DataElement.DS.DSDECOD>
  rdf:type mms:DataElement ;
  mms:context <http://rdf.cdisc.org/std/cdash-1-1#Domain.DS> ;
  mms:dataElementDescription "Describes whether a subject completed the study or a portion of a study (epoch) or the reason they did not complete. DSDECOD is the Standardized Disposition Term."^^xsd:string ;
  mms:dataElementLabel "Status"^^xsd:string ;
  mms:dataElementName "DSDECOD"^^xsd:string ;
  mms:dataElementType "xsd:string"^^xsd:anySimpleType ;
  mms:dataElementValueDomain sdtmct:C66727 ;
  mms:ordinal "2"^^xsd:positiveInteger ;
  cdiscs:completionInstructions "Document the subject's status at <insert text corresponding to the selected trial epoch>. If the subject discontinued prematurely, record the primary reason for discontinuation."^^xsd:string ;
  cdiscs:controlledTermsOrFormat "NCOMPLT"^^xsd:string ;
  cdiscs:prompt "Status"^^xsd:string ;
  cdiscs:questionText "What was the subject's status?"^^xsd:string ;
.
<http://rdf.cdisc.org/std/cdash-1-1#DataElement.DS.DSNEXT>
  rdf:type mms:DataElement ;
  mms:context <http://rdf.cdisc.org/std/cdash-1-1#Domain.DS> ;
  mms:dataElementDescription "Identifies the study epoch or new study in which the subject will participate."^^xsd:string ;
  mms:dataElementLabel "Next Period"^^xsd:string ;
  mms:dataElementName "DSNEXT"^^xsd:string ;
  mms:dataElementType "xsd:string"^^xsd:anySimpleType ;
  mms:ordinal "8"^^xsd:positiveInteger ;
  cdiscs:completionInstructions "Record the study <epoch or study identifier> (sponsor to specify as appropriate) if the subject is continuing."^^xsd:string ;
  cdiscs:prompt "Next Period"^^xsd:string ;
  cdiscs:questionText "What is the next period the subject will continue to?"^^xsd:string ;
.
<http://rdf.cdisc.org/std/cdash-1-1#DataElement.DS.DSSTDAT>
  rdf:type mms:DataElement ;
  mms:context <http://rdf.cdisc.org/std/cdash-1-1#Domain.DS> ;
  mms:dataElementDescription "The date of the specified protocol milestone (e.g. informed consent, randomization) or disposition event (e.g. study completion or discontinuation)."^^xsd:string ;
  mms:dataElementLabel "<protocol milestone/ disposition event> date"^^xsd:string ;
  mms:dataElementName "DSSTDAT"^^xsd:string ;
  mms:dataElementType "xsd:date"^^xsd:anySimpleType ;
  mms:ordinal "4"^^xsd:positiveInteger ;
  cdiscs:completionInstructions "Record the date of <protocol milestone/disposition event> as defined in the protocol and/or CRF Completion Instructions using this format (DD- MON-YYYY)."^^xsd:string ;
  cdiscs:prompt "<protocol milestone/ disposition event> date"^^xsd:string ;
  cdiscs:questionText "What was the date of <protocol milestone/ disposition event>?"^^xsd:string ;
.
<http://rdf.cdisc.org/std/cdash-1-1#DataElement.DS.DSSTTIM>
  rdf:type mms:DataElement ;
  mms:context <http://rdf.cdisc.org/std/cdash-1-1#Domain.DS> ;
  mms:dataElementDescription "The time that the subject completed the study or portion of the study or the date that the subject discontinued."^^xsd:string ;
  mms:dataElementLabel "Completion or Discontinuation Time"^^xsd:string ;
  mms:dataElementName "DSSTTIM"^^xsd:string ;
  mms:dataElementType "xsd:time"^^xsd:anySimpleType ;
  mms:ordinal "5"^^xsd:positiveInteger ;
  cdiscs:completionInstructions "Record the time (as complete as possible) that the subject completed the study or portion of the study as defined in the protocol and/or CRF Completion Instructions. If the subject did not complete the study or portion of the study, record the time (as complete as possible) as defined in the protocol and/or CRF Completion Instructions."^^xsd:string ;
  cdiscs:prompt "Completion or Discontinuation Time"^^xsd:string ;
  cdiscs:questionText "What was the time of <protocol milestone/ disposition event>?"^^xsd:string ;
.
<http://rdf.cdisc.org/std/cdash-1-1#DataElement.DS.DSTERM>
  rdf:type mms:DataElement ;
  mms:context <http://rdf.cdisc.org/std/cdash-1-1#Domain.DS> ;
  mms:dataElementDescription "A free text field that captures how a subject completed the study or a portion of a study (epoch) or the reason they did not complete. (Or if used with a DECOD list), free text description of the subject's \"Other\" status."^^xsd:string ;
  mms:dataElementLabel "Specify status"^^xsd:string ;
  mms:dataElementName "DSTERM"^^xsd:string ;
  mms:dataElementType "xsd:string"^^xsd:anySimpleType ;
  mms:ordinal "3"^^xsd:positiveInteger ;
  cdiscs:completionInstructions "Document the subject's status at <insert text corresponding to the selected trial epoch>. If the subject discontinued prematurely, record the primary reason for discontinuation. (Or, if used with a DECOD list), if \"Other\" is selected from the Status list, provide the verbatim reason."^^xsd:string ;
  cdiscs:prompt "Specify status"^^xsd:string ;
  cdiscs:questionText "Specify Status"^^xsd:string ;
.
<http://rdf.cdisc.org/std/cdash-1-1#DataElement.DS.DSUNBLND>
  rdf:type mms:DataElement ;
  mms:context <http://rdf.cdisc.org/std/cdash-1-1#Domain.DS> ;
  mms:dataElementDescription "Identifies in a blinded trial whether or not the subject's blind was broken by the site.  (See  Section 2.2.)"^^xsd:string ;
  mms:dataElementLabel "Unblinded"^^xsd:string ;
  mms:dataElementName "DSUNBLND"^^xsd:string ;
  mms:dataElementType "xsd:string"^^xsd:anySimpleType ;
  mms:dataElementValueDomain sdtmct:C66742 ;
  mms:ordinal "6"^^xsd:positiveInteger ;
  cdiscs:completionInstructions "Was the subject's treatment assignment unblinded by the site?"^^xsd:string ;
  cdiscs:controlledTermsOrFormat "NY"^^xsd:string ;
  cdiscs:prompt "Unblinded"^^xsd:string ;
  cdiscs:questionText "Was treatment unblinded by the site?"^^xsd:string ;
.
<http://rdf.cdisc.org/std/cdash-1-1#DataElement.DS.EPOCH>
  rdf:type mms:DataElement ;
  mms:context <http://rdf.cdisc.org/std/cdash-1-1#Domain.DS> ;
  mms:dataElementDescription "Trial epoch (e.g., DOUBLE BLIND, SINGLE BLIND, TREATMENT, SCREENING, RUN IN) for which subject disposition is being collected."^^xsd:string ;
  mms:dataElementLabel "Trial Period"^^xsd:string ;
  mms:dataElementName "EPOCH"^^xsd:string ;
  mms:dataElementType "xsd:string"^^xsd:anySimpleType ;
  mms:ordinal "1"^^xsd:positiveInteger ;
  cdiscs:completionInstructions "Check the <epoch, or insert more appropriate wording> for which disposition is being recorded."^^xsd:string ;
  cdiscs:prompt "Trial Period"^^xsd:string ;
  cdiscs:questionText "To which period of the trial does this disposition refer?"^^xsd:string ;
.
<http://rdf.cdisc.org/std/cdash-1-1#DataElement.DV.DVDECOD>
  rdf:type mms:DataElement ;
  mms:context <http://rdf.cdisc.org/std/cdash-1-1#Domain.DV> ;
  mms:dataElementDescription "DVDECOD is the controlled terminology for the protocol deviation."^^xsd:string ;
  mms:dataElementLabel "<Protocol Deviation>"^^xsd:string ;
  mms:dataElementName "DVDECOD"^^xsd:string ;
  mms:dataElementType "xsd:string"^^xsd:anySimpleType ;
  mms:ordinal "2"^^xsd:positiveInteger ;
  cdiscs:completionInstructions "Record protocol deviations identified and/or select the appropriate code from the list of protocol deviation terms."^^xsd:string ;
  cdiscs:prompt "<Protocol Deviation>"^^xsd:string ;
  cdiscs:questionText "What was the protocol deviation?"^^xsd:string ;
.
<http://rdf.cdisc.org/std/cdash-1-1#DataElement.DV.DVENDAT>
  rdf:type mms:DataElement ;
  mms:context <http://rdf.cdisc.org/std/cdash-1-1#Domain.DV> ;
  mms:dataElementDescription "End date of Deviation."^^xsd:string ;
  mms:dataElementLabel "End Date"^^xsd:string ;
  mms:dataElementName "DVENDAT"^^xsd:string ;
  mms:dataElementType "xsd:date"^^xsd:anySimpleType ;
  mms:ordinal "6"^^xsd:positiveInteger ;
  cdiscs:completionInstructions "Record the date that the Protocol deviation ended using this format (DD- MON-YYYY). This should be the date the protocol deviation stopped and not the date it was discovered or reported."^^xsd:string ;
  cdiscs:prompt "End Date"^^xsd:string ;
  cdiscs:questionText "What was the protocol deviation end date?"^^xsd:string ;
.
<http://rdf.cdisc.org/std/cdash-1-1#DataElement.DV.DVENTIM>
  rdf:type mms:DataElement ;
  mms:context <http://rdf.cdisc.org/std/cdash-1-1#Domain.DV> ;
  mms:dataElementDescription "End time of Deviation."^^xsd:string ;
  mms:dataElementLabel "End Time"^^xsd:string ;
  mms:dataElementName "DVENTIM"^^xsd:string ;
  mms:dataElementType "xsd:time"^^xsd:anySimpleType ;
  mms:ordinal "7"^^xsd:positiveInteger ;
  cdiscs:completionInstructions "If appropriate, record the time (as complete as possible) the protocol deviation ended. This should be the time the protocol deviation stopped and not the time it was discovered or reported."^^xsd:string ;
  cdiscs:prompt "End Time"^^xsd:string ;
  cdiscs:questionText "What was the protocol deviation end time?"^^xsd:string ;
.
<http://rdf.cdisc.org/std/cdash-1-1#DataElement.DV.DVSPID>
  rdf:type mms:DataElement ;
  mms:context <http://rdf.cdisc.org/std/cdash-1-1#Domain.DV> ;
  mms:dataElementDescription "A sponsor-defined identifier which can be used for pre-printed numbers on the CRF."^^xsd:string ;
  mms:dataElementLabel "<line number> or <DV number>"^^xsd:string ;
  mms:dataElementName "DVSPID"^^xsd:string ;
  mms:dataElementType "xsd:string"^^xsd:anySimpleType ;
  mms:ordinal "8"^^xsd:positiveInteger ;
  cdiscs:completionInstructions "Not applicable."^^xsd:string ;
  cdiscs:prompt "<line number> or <DV number>"^^xsd:string ;
  cdiscs:questionText "What is the protocol deviation ID?"^^xsd:string ;
.
<http://rdf.cdisc.org/std/cdash-1-1#DataElement.DV.DVSTDAT>
  rdf:type mms:DataElement ;
  mms:context <http://rdf.cdisc.org/std/cdash-1-1#Domain.DV> ;
  mms:dataElementDescription "Start date of Deviation."^^xsd:string ;
  mms:dataElementLabel "Start Date"^^xsd:string ;
  mms:dataElementName "DVSTDAT"^^xsd:string ;
  mms:dataElementType "xsd:date"^^xsd:anySimpleType ;
  mms:ordinal "4"^^xsd:positiveInteger ;
  cdiscs:completionInstructions "Record complete date that the protocol deviation began using this format (DD- MON-YYYY). This should be the start or occurrence of the protocol deviation and not the date it was discovered or reported."^^xsd:string ;
  cdiscs:prompt "Start Date"^^xsd:string ;
  cdiscs:questionText "What was the protocol deviation start date?"^^xsd:string ;
.
<http://rdf.cdisc.org/std/cdash-1-1#DataElement.DV.DVSTTIM>
  rdf:type mms:DataElement ;
  mms:context <http://rdf.cdisc.org/std/cdash-1-1#Domain.DV> ;
  mms:dataElementDescription "Start time of Deviation."^^xsd:string ;
  mms:dataElementLabel "Start Time"^^xsd:string ;
  mms:dataElementName "DVSTTIM"^^xsd:string ;
  mms:dataElementType "xsd:time"^^xsd:anySimpleType ;
  mms:ordinal "5"^^xsd:positiveInteger ;
  cdiscs:completionInstructions "If appropriate, record the time (as complete as possible) the protocol deviation began. This should be the start or occurrence of the protocol deviation and not the time it was discovered or reported."^^xsd:string ;
  cdiscs:prompt "Start Time"^^xsd:string ;
  cdiscs:questionText "What was the protocol deviation start time?"^^xsd:string ;
.
<http://rdf.cdisc.org/std/cdash-1-1#DataElement.DV.DVTERM>
  rdf:type mms:DataElement ;
  mms:context <http://rdf.cdisc.org/std/cdash-1-1#Domain.DV> ;
  mms:dataElementDescription "DVTERM is the verbatim text."^^xsd:string ;
  mms:dataElementLabel "Protocol Deviation or Other, Specify"^^xsd:string ;
  mms:dataElementName "DVTERM"^^xsd:string ;
  mms:dataElementType "xsd:string"^^xsd:anySimpleType ;
  mms:ordinal "3"^^xsd:positiveInteger ;
  cdiscs:completionInstructions "Record the appropriate code from the list of protocol deviation terms."^^xsd:string ;
  cdiscs:prompt "Protocol Deviation or Other, Specify "^^xsd:string ;
  cdiscs:questionText "What was the protocol deviation term?"^^xsd:string ;
.
<http://rdf.cdisc.org/std/cdash-1-1#DataElement.DV.DVYN>
  rdf:type mms:DataElement ;
  mms:context <http://rdf.cdisc.org/std/cdash-1-1#Domain.DV> ;
  mms:dataElementDescription "Indication of whether or not there was a protocol deviation."^^xsd:string ;
  mms:dataElementLabel "Any Deviations?"^^xsd:string ;
  mms:dataElementName "DVYN"^^xsd:string ;
  mms:dataElementType "xsd:string"^^xsd:anySimpleType ;
  mms:dataElementValueDomain sdtmct:C66742 ;
  mms:ordinal "1"^^xsd:positiveInteger ;
  cdiscs:completionInstructions "Enter \"Yes\" if a protocol deviation occurred and \"No\" if none occurred.  Ensure that any adverse event, concomitant medication use, newly discovered medical history, etc. which triggers a protocol deviation is noted in the respective CRF."^^xsd:string ;
  cdiscs:controlledTermsOrFormat "NY"^^xsd:string ;
  cdiscs:prompt "Any Deviations?"^^xsd:string ;
  cdiscs:questionText "Were there any protocol deviations?"^^xsd:string ;
.
<http://rdf.cdisc.org/std/cdash-1-1#DataElement.EG.EGCLSIG>
  rdf:type mms:DataElement ;
  mms:context <http://rdf.cdisc.org/std/cdash-1-1#Domain.EG> ;
  mms:dataElementDescription "Whether ECG results were clinically significant."^^xsd:string ;
  mms:dataElementLabel "Clinically significant"^^xsd:string ;
  mms:dataElementName "EGCLSIG"^^xsd:string ;
  mms:dataElementType "xsd:string"^^xsd:anySimpleType ;
  mms:dataElementValueDomain sdtmct:C66742 ;
  mms:ordinal "12"^^xsd:positiveInteger ;
  cdiscs:completionInstructions "Record whether ECG results were clinically significant."^^xsd:string ;
  cdiscs:controlledTermsOrFormat "NY"^^xsd:string ;
  cdiscs:prompt "Clinically significant"^^xsd:string ;
  cdiscs:questionText "Was the ECG clinically significant?"^^xsd:string ;
.
<http://rdf.cdisc.org/std/cdash-1-1#DataElement.EG.EGDAT>
  rdf:type mms:DataElement ;
  mms:context <http://rdf.cdisc.org/std/cdash-1-1#Domain.EG> ;
  mms:dataElementDescription "Date of ECG."^^xsd:string ;
  mms:dataElementLabel "ECG Date"^^xsd:string ;
  mms:dataElementName "EGDAT"^^xsd:string ;
  mms:dataElementType "xsd:date"^^xsd:anySimpleType ;
  mms:ordinal "5"^^xsd:positiveInteger ;
  cdiscs:completionInstructions "Record the date ECG was done using this format (DD-MON-YYYY)."^^xsd:string ;
  cdiscs:prompt "ECG Date"^^xsd:string ;
  cdiscs:questionText "What was the ECG date?"^^xsd:string ;
.
<http://rdf.cdisc.org/std/cdash-1-1#DataElement.EG.EGMETHOD>
  rdf:type mms:DataElement ;
  mms:context <http://rdf.cdisc.org/std/cdash-1-1#Domain.EG> ;
  mms:dataElementDescription "Method used to measure ECG."^^xsd:string ;
  mms:dataElementLabel "Method"^^xsd:string ;
  mms:dataElementName "EGMETHOD"^^xsd:string ;
  mms:dataElementType "xsd:string"^^xsd:anySimpleType ;
  mms:dataElementValueDomain sdtmct:C71151 ;
  mms:ordinal "3"^^xsd:positiveInteger ;
  cdiscs:completionInstructions "Record the method used to measure ECG."^^xsd:string ;
  cdiscs:controlledTermsOrFormat "EGMETHOD"^^xsd:string ;
  cdiscs:prompt "Method"^^xsd:string ;
  cdiscs:questionText "What was the method used to measure ECG?"^^xsd:string ;
.
<http://rdf.cdisc.org/std/cdash-1-1#DataElement.EG.EGORRES>
  rdf:type mms:DataElement ;
  mms:context <http://rdf.cdisc.org/std/cdash-1-1#Domain.EG> ;
  mms:dataElementDescription "Result of the measurement or finding as originally received or collected."^^xsd:string ;
  mms:dataElementLabel "Result"^^xsd:string ;
  mms:dataElementName "EGORRES"^^xsd:string ;
  mms:dataElementType "xsd:string"^^xsd:anySimpleType ;
  mms:ordinal "10"^^xsd:positiveInteger ;
  cdiscs:completionInstructions "Record test results, interpretations or findings."^^xsd:string ;
  cdiscs:prompt "Result"^^xsd:string ;
  cdiscs:questionText "What was the result of the ECG?"^^xsd:string ;
.
<http://rdf.cdisc.org/std/cdash-1-1#DataElement.EG.EGORRESU>
  rdf:type mms:DataElement ;
  mms:context <http://rdf.cdisc.org/std/cdash-1-1#Domain.EG> ;
  mms:dataElementDescription "Original units in which the data were collected."^^xsd:string ;
  mms:dataElementLabel "Units"^^xsd:string ;
  mms:dataElementName "EGORRESU"^^xsd:string ;
  mms:dataElementType "xsd:string"^^xsd:anySimpleType ;
  mms:dataElementValueDomain cdashct:C78422 ;
  mms:ordinal "11"^^xsd:positiveInteger ;
  cdiscs:completionInstructions "Record the original units in which these data were collected, if not pre- printed on CRF."^^xsd:string ;
  cdiscs:controlledTermsOrFormat "UNIT"^^xsd:string ;
  cdiscs:prompt "Units"^^xsd:string ;
  cdiscs:questionText "What were the ECG result units?"^^xsd:string ;
.
<http://rdf.cdisc.org/std/cdash-1-1#DataElement.EG.EGPERF>
  rdf:type mms:DataElement ;
  mms:context <http://rdf.cdisc.org/std/cdash-1-1#Domain.EG> ;
  mms:dataElementDescription "Status of whether or not ECG or a specific ECG test was done."^^xsd:string ;
  mms:dataElementLabel "ECG Performed"^^xsd:string ;
  mms:dataElementName "EGPERF"^^xsd:string ;
  mms:dataElementType "xsd:string"^^xsd:anySimpleType ;
  mms:dataElementValueDomain sdtmct:C66742 ;
  mms:ordinal "1"^^xsd:positiveInteger ;
  cdiscs:completionInstructions "Indicate whether or not ECG or specific ECG test was done."^^xsd:string ;
  cdiscs:controlledTermsOrFormat "NY"^^xsd:string ;
  cdiscs:prompt "ECG Performed"^^xsd:string ;
  cdiscs:questionText "Was the ECG performed?"^^xsd:string ;
.
<http://rdf.cdisc.org/std/cdash-1-1#DataElement.EG.EGPOS>
  rdf:type mms:DataElement ;
  mms:context <http://rdf.cdisc.org/std/cdash-1-1#Domain.EG> ;
  mms:dataElementDescription "Position of the subject during the ECG measurement."^^xsd:string ;
  mms:dataElementLabel "Subject Position"^^xsd:string ;
  mms:dataElementName "EGPOS"^^xsd:string ;
  mms:dataElementType "xsd:string"^^xsd:anySimpleType ;
  mms:dataElementValueDomain sdtmct:C71148 ;
  mms:ordinal "4"^^xsd:positiveInteger ;
  cdiscs:completionInstructions "Record the position of the subject during the ECG."^^xsd:string ;
  cdiscs:controlledTermsOrFormat "POSITION"^^xsd:string ;
  cdiscs:prompt "Subject Position"^^xsd:string ;
  cdiscs:questionText "What was the position of the subject during ECG measurement?"^^xsd:string ;
.
<http://rdf.cdisc.org/std/cdash-1-1#DataElement.EG.EGREFID>
  rdf:type mms:DataElement ;
  mms:context <http://rdf.cdisc.org/std/cdash-1-1#Domain.EG> ;
  mms:dataElementDescription "Identifier of the ECG (e.g. waveform number)."^^xsd:string ;
  mms:dataElementLabel "Reference ID"^^xsd:string ;
  mms:dataElementName "EGREFID"^^xsd:string ;
  mms:dataElementType "xsd:string"^^xsd:anySimpleType ;
  mms:ordinal "2"^^xsd:positiveInteger ;
  cdiscs:completionInstructions "Record the identifier number assigned."^^xsd:string ;
  cdiscs:prompt "Reference ID"^^xsd:string ;
  cdiscs:questionText "What was the ECG reference identifier?"^^xsd:string ;
.
<http://rdf.cdisc.org/std/cdash-1-1#DataElement.EG.EGTEST>
  rdf:type mms:DataElement ;
  mms:context <http://rdf.cdisc.org/std/cdash-1-1#Domain.EG> ;
  mms:dataElementDescription "Descriptive name of the measurement or finding."^^xsd:string ;
  mms:dataElementLabel "<Test name>"^^xsd:string ;
  mms:dataElementName "EGTEST"^^xsd:string ;
  mms:dataElementType "xsd:string"^^xsd:anySimpleType ;
  mms:dataElementValueDomain sdtmct:C71152 ;
  mms:ordinal "8"^^xsd:positiveInteger ;
  cdiscs:completionInstructions "Record the name of the ECG measurement or finding, if not pre-printed on the CRF."^^xsd:string ;
  cdiscs:controlledTermsOrFormat "EGTEST"^^xsd:string ;
  cdiscs:prompt "<Test name>"^^xsd:string ;
  cdiscs:questionText "What was the ECG test name?"^^xsd:string ;
.
<http://rdf.cdisc.org/std/cdash-1-1#DataElement.EG.EGTESTCD>
  rdf:type mms:DataElement ;
  mms:context <http://rdf.cdisc.org/std/cdash-1-1#Domain.EG> ;
  mms:dataElementDescription "Terminology codelist used with ECG Tests within CDISC."^^xsd:string ;
  mms:dataElementLabel "<Test name Coded>"^^xsd:string ;
  mms:dataElementName "EGTESTCD"^^xsd:string ;
  mms:dataElementType "xsd:string"^^xsd:anySimpleType ;
  mms:dataElementValueDomain sdtmct:C71153 ;
  mms:ordinal "9"^^xsd:positiveInteger ;
  cdiscs:controlledTermsOrFormat "EGTESTCD"^^xsd:string ;
  cdiscs:prompt "<Test name Coded>"^^xsd:string ;
.
<http://rdf.cdisc.org/std/cdash-1-1#DataElement.EG.EGTIM>
  rdf:type mms:DataElement ;
  mms:context <http://rdf.cdisc.org/std/cdash-1-1#Domain.EG> ;
  mms:dataElementDescription "Time of ECG."^^xsd:string ;
  mms:dataElementLabel "ECG Time"^^xsd:string ;
  mms:dataElementName "EGTIM"^^xsd:string ;
  mms:dataElementType "xsd:time"^^xsd:anySimpleType ;
  mms:ordinal "7"^^xsd:positiveInteger ;
  cdiscs:completionInstructions "Record the time the ECG was done (as complete as possible)."^^xsd:string ;
  cdiscs:prompt "ECG Time"^^xsd:string ;
  cdiscs:questionText "What was the ECG time?"^^xsd:string ;
.
<http://rdf.cdisc.org/std/cdash-1-1#DataElement.EG.EGTPT>
  rdf:type mms:DataElement ;
  mms:context <http://rdf.cdisc.org/std/cdash-1-1#Domain.EG> ;
  mms:dataElementDescription "Text description of planned time point when measurements should be taken for use when multiple sequential assessments are done."^^xsd:string ;
  mms:dataElementLabel "<Planned Time Point>"^^xsd:string ;
  mms:dataElementName "EGTPT"^^xsd:string ;
  mms:dataElementType "xsd:string"^^xsd:anySimpleType ;
  mms:ordinal "6"^^xsd:positiveInteger ;
  cdiscs:completionInstructions "Record the time point labels for when the ECG test should be taken, if not pre-printed on the CRF."^^xsd:string ;
  cdiscs:prompt "<Planned Time Point>"^^xsd:string ;
  cdiscs:questionText "What was the planned time point of the measurement?"^^xsd:string ;
.
<http://rdf.cdisc.org/std/cdash-1-1#DataElement.EX.EXADJ>
  rdf:type mms:DataElement ;
  mms:context <http://rdf.cdisc.org/std/cdash-1-1#Domain.EX> ;
  mms:dataElementDescription "Describes reason or explanation of why a dose is adjusted - used only when an adjustment is represented in EXPOSURE dataset. May be used for variations from protocol-specified doses, or changes from expected doses."^^xsd:string ;
  mms:dataElementLabel "Reason adjusted"^^xsd:string ;
  mms:dataElementName "EXADJ"^^xsd:string ;
  mms:dataElementType "xsd:string"^^xsd:anySimpleType ;
  mms:ordinal "12"^^xsd:positiveInteger ;
  cdiscs:completionInstructions "If there was a change in dosing, record the reason for change."^^xsd:string ;
  cdiscs:prompt "Reason adjusted"^^xsd:string ;
  cdiscs:questionText "What was the reason the dose was adjusted?"^^xsd:string ;
.
<http://rdf.cdisc.org/std/cdash-1-1#DataElement.EX.EXDOSADJ>
  rdf:type mms:DataElement ;
  mms:context <http://rdf.cdisc.org/std/cdash-1-1#Domain.EX> ;
  mms:dataElementDescription "Confirmation of dose adjustment."^^xsd:string ;
  mms:dataElementLabel "Adjusted"^^xsd:string ;
  mms:dataElementName "EXDOSADJ"^^xsd:string ;
  mms:dataElementType "xsd:string"^^xsd:anySimpleType ;
  mms:dataElementValueDomain sdtmct:C66742 ;
  mms:ordinal "11"^^xsd:positiveInteger ;
  cdiscs:completionInstructions "Select either \"Yes\" or \"No\" to indicate whether there was a change in dosing."^^xsd:string ;
  cdiscs:controlledTermsOrFormat "NY"^^xsd:string ;
  cdiscs:prompt "Adjusted"^^xsd:string ;
  cdiscs:questionText "Was the dose adjusted from planned?"^^xsd:string ;
.
<http://rdf.cdisc.org/std/cdash-1-1#DataElement.EX.EXDOSFRM>
  rdf:type mms:DataElement ;
  mms:context <http://rdf.cdisc.org/std/cdash-1-1#Domain.EX> ;
  mms:dataElementDescription "Dose form for EXTRT."^^xsd:string ;
  mms:dataElementLabel "Formulation"^^xsd:string ;
  mms:dataElementName "EXDOSFRM"^^xsd:string ;
  mms:dataElementType "xsd:string"^^xsd:anySimpleType ;
  mms:dataElementValueDomain cdashct:C78426 ;
  mms:ordinal "15"^^xsd:positiveInteger ;
  cdiscs:completionInstructions "Record the formulation (e.g., SOLUTION, TABLET, LOTION) or enter the appropriate code from the code list."^^xsd:string ;
  cdiscs:controlledTermsOrFormat "FRM"^^xsd:string ;
  cdiscs:prompt "Formulation"^^xsd:string ;
  cdiscs:questionText "What was the formulation of the study treatment?"^^xsd:string ;
.
<http://rdf.cdisc.org/std/cdash-1-1#DataElement.EX.EXDOSFRQ>
  rdf:type mms:DataElement ;
  mms:context <http://rdf.cdisc.org/std/cdash-1-1#Domain.EX> ;
  mms:dataElementDescription "Number of doses given per a specific interval."^^xsd:string ;
  mms:dataElementLabel "Frequency"^^xsd:string ;
  mms:dataElementName "EXDOSFRQ"^^xsd:string ;
  mms:dataElementType "xsd:string"^^xsd:anySimpleType ;
  mms:dataElementValueDomain cdashct:C78745 ;
  mms:ordinal "13"^^xsd:positiveInteger ;
  cdiscs:completionInstructions "Record the frequency the study treatment was administered for a defined period of time (e.g., BID, QID, TID)."^^xsd:string ;
  cdiscs:controlledTermsOrFormat "FREQ"^^xsd:string ;
  cdiscs:prompt "Frequency"^^xsd:string ;
  cdiscs:questionText "What was the frequency of study treatment dosing?"^^xsd:string ;
.
<http://rdf.cdisc.org/std/cdash-1-1#DataElement.EX.EXDOSU>
  rdf:type mms:DataElement ;
  mms:context <http://rdf.cdisc.org/std/cdash-1-1#Domain.EX> ;
  mms:dataElementDescription "Units for EXDOSE."^^xsd:string ;
  mms:dataElementLabel "Units"^^xsd:string ;
  mms:dataElementName "EXDOSU"^^xsd:string ;
  mms:dataElementType "xsd:string"^^xsd:anySimpleType ;
  mms:dataElementValueDomain cdashct:C78423 ;
  mms:ordinal "8"^^xsd:positiveInteger ;
  cdiscs:completionInstructions "Record the unit of dose or amount taken per period recorded (e.g., ng, mg, mg/kg)."^^xsd:string ;
  cdiscs:controlledTermsOrFormat "UNIT"^^xsd:string ;
  cdiscs:prompt "Units"^^xsd:string ;
  cdiscs:questionText "What were the units for the dose?"^^xsd:string ;
.
<http://rdf.cdisc.org/std/cdash-1-1#DataElement.EX.EXDSTXT>
  rdf:type mms:DataElement ;
  mms:context <http://rdf.cdisc.org/std/cdash-1-1#Domain.EX> ;
  mms:dataElementDescription "Dose per administration."^^xsd:string ;
  mms:dataElementLabel "Dose"^^xsd:string ;
  mms:dataElementName "EXDSTXT"^^xsd:string ;
  mms:dataElementType "xsd:string"^^xsd:anySimpleType ;
  mms:ordinal "7"^^xsd:positiveInteger ;
  cdiscs:completionInstructions "Record the dose or amount of study treatment that was administered to/taken by the subject in the period recorded; from the start date/time to the end date/time inclusive."^^xsd:string ;
  cdiscs:prompt "Dose"^^xsd:string ;
  cdiscs:questionText "What was the dose per administration ?"^^xsd:string ;
.
<http://rdf.cdisc.org/std/cdash-1-1#DataElement.EX.EXENDAT>
  rdf:type mms:DataElement ;
  mms:context <http://rdf.cdisc.org/std/cdash-1-1#Domain.EX> ;
  mms:dataElementDescription "End date of treatment."^^xsd:string ;
  mms:dataElementLabel "End Date"^^xsd:string ;
  mms:dataElementName "EXENDAT"^^xsd:string ;
  mms:dataElementType "xsd:date"^^xsd:anySimpleType ;
  mms:ordinal "5"^^xsd:positiveInteger ;
  cdiscs:completionInstructions "Record the end date or last date of administration of study treatment using this format (DD-MON- YYYY)."^^xsd:string ;
  cdiscs:prompt "End Date"^^xsd:string ;
  cdiscs:questionText "What was the treatment end date?"^^xsd:string ;
.
<http://rdf.cdisc.org/std/cdash-1-1#DataElement.EX.EXENTIM>
  rdf:type mms:DataElement ;
  mms:context <http://rdf.cdisc.org/std/cdash-1-1#Domain.EX> ;
  mms:dataElementDescription "End time of treatment."^^xsd:string ;
  mms:dataElementLabel "End Time"^^xsd:string ;
  mms:dataElementName "EXENTIM"^^xsd:string ;
  mms:dataElementType "xsd:time"^^xsd:anySimpleType ;
  mms:ordinal "6"^^xsd:positiveInteger ;
  cdiscs:completionInstructions "Record the time, (as complete as possible) when study treatment administration stopped (e.g., for infusions this is the time when the infusion ended)."^^xsd:string ;
  cdiscs:prompt "End Time"^^xsd:string ;
  cdiscs:questionText "What was the treatment end time?"^^xsd:string ;
.
<http://rdf.cdisc.org/std/cdash-1-1#DataElement.EX.EXFLRT>
  rdf:type mms:DataElement ;
  mms:context <http://rdf.cdisc.org/std/cdash-1-1#Domain.EX> ;
  mms:dataElementDescription "Rate of infusion."^^xsd:string ;
  mms:dataElementLabel "Infusion Rate"^^xsd:string ;
  mms:dataElementName "EXFLRT"^^xsd:string ;
  mms:dataElementType "xsd:decimal"^^xsd:anySimpleType ;
  mms:ordinal "21"^^xsd:positiveInteger ;
  cdiscs:completionInstructions "Record the Rate of Infusion (e.g., if rate is10 mL/min. Record \"10\"as the infusion rate)."^^xsd:string ;
  cdiscs:prompt "Infusion Rate"^^xsd:string ;
  cdiscs:questionText "What was the study treatment infusion rate?"^^xsd:string ;
.
<http://rdf.cdisc.org/std/cdash-1-1#DataElement.EX.EXFLRTU>
  rdf:type mms:DataElement ;
  mms:context <http://rdf.cdisc.org/std/cdash-1-1#Domain.EX> ;
  mms:dataElementDescription "The unit of measure for the rate of infusion."^^xsd:string ;
  mms:dataElementLabel "Infusion Rate Units"^^xsd:string ;
  mms:dataElementName "EXFLRTU"^^xsd:string ;
  mms:dataElementType "xsd:string"^^xsd:anySimpleType ;
  mms:dataElementValueDomain cdashct:C78429 ;
  mms:ordinal "22"^^xsd:positiveInteger ;
  cdiscs:completionInstructions "Record the unit for the infusion rate (e.g., mL/min)."^^xsd:string ;
  cdiscs:controlledTermsOrFormat "UNIT"^^xsd:string ;
  cdiscs:prompt "Infusion Rate Units"^^xsd:string ;
  cdiscs:questionText "What were the units for the infusion rate?"^^xsd:string ;
.
<http://rdf.cdisc.org/std/cdash-1-1#DataElement.EX.EXINTRP>
  rdf:type mms:DataElement ;
  mms:context <http://rdf.cdisc.org/std/cdash-1-1#Domain.EX> ;
  mms:dataElementDescription "Duration of the treatment interruption."^^xsd:string ;
  mms:dataElementLabel "Interruption Duration"^^xsd:string ;
  mms:dataElementName "EXINTRP"^^xsd:string ;
  mms:dataElementType "xsd:decimal"^^xsd:anySimpleType ;
  mms:ordinal "16"^^xsd:positiveInteger ;
  cdiscs:completionInstructions "Record the duration of treatment interruption."^^xsd:string ;
  cdiscs:prompt "Interruption Duration"^^xsd:string ;
  cdiscs:questionText "If the dose was interrupted, how long was the interruption?"^^xsd:string ;
.
<http://rdf.cdisc.org/std/cdash-1-1#DataElement.EX.EXINTRPU>
  rdf:type mms:DataElement ;
  mms:context <http://rdf.cdisc.org/std/cdash-1-1#Domain.EX> ;
  mms:dataElementDescription "Unit for the duration of treatment interruption."^^xsd:string ;
  mms:dataElementLabel "<Duration Units>"^^xsd:string ;
  mms:dataElementName "EXINTRPU"^^xsd:string ;
  mms:dataElementType "xsd:string"^^xsd:anySimpleType ;
  mms:dataElementValueDomain cdashct:C78427 ;
  mms:ordinal "17"^^xsd:positiveInteger ;
  cdiscs:completionInstructions "Record the unit (e.g., MINUTES, HOURS, DAYS) for the duration of treatment interruption."^^xsd:string ;
  cdiscs:controlledTermsOrFormat "UNIT"^^xsd:string ;
  cdiscs:prompt "<Duration Units>"^^xsd:string ;
  cdiscs:questionText "If the dose was interrupted, what were the units for the duration?"^^xsd:string ;
.
<http://rdf.cdisc.org/std/cdash-1-1#DataElement.EX.EXLOC>
  rdf:type mms:DataElement ;
  mms:context <http://rdf.cdisc.org/std/cdash-1-1#Domain.EX> ;
  mms:dataElementDescription "Specifies anatomical location of administration."^^xsd:string ;
  mms:dataElementLabel "Anatomical Location"^^xsd:string ;
  mms:dataElementName "EXLOC"^^xsd:string ;
  mms:dataElementType "xsd:string"^^xsd:anySimpleType ;
  mms:dataElementValueDomain sdtmct:C74456 ;
  mms:ordinal "18"^^xsd:positiveInteger ;
  cdiscs:completionInstructions "Record the body location where the study treatment was administered (e.g., SHOULDER, HIP, ARM)."^^xsd:string ;
  cdiscs:controlledTermsOrFormat "LOC"^^xsd:string ;
  cdiscs:prompt "Anatomical Location"^^xsd:string ;
  cdiscs:questionText "What was the anatomical location of the administration?"^^xsd:string ;
.
<http://rdf.cdisc.org/std/cdash-1-1#DataElement.EX.EXLOT>
  rdf:type mms:DataElement ;
  mms:context <http://rdf.cdisc.org/std/cdash-1-1#Domain.EX> ;
  mms:dataElementDescription "Lot Number of the EXTRT product."^^xsd:string ;
  mms:dataElementLabel "Lot Number"^^xsd:string ;
  mms:dataElementName "EXLOT"^^xsd:string ;
  mms:dataElementType "xsd:string"^^xsd:anySimpleType ;
  mms:ordinal "9"^^xsd:positiveInteger ;
  cdiscs:completionInstructions "Record the lot number that appears on the container holding the study treatment."^^xsd:string ;
  cdiscs:prompt "Lot Number"^^xsd:string ;
  cdiscs:questionText "What was the lot number of the study treatment used?"^^xsd:string ;
.
<http://rdf.cdisc.org/std/cdash-1-1#DataElement.EX.EXPDOSE>
  rdf:type mms:DataElement ;
  mms:context <http://rdf.cdisc.org/std/cdash-1-1#Domain.EX> ;
  mms:dataElementDescription "Intended dose per administration."^^xsd:string ;
  mms:dataElementLabel "Planned Dose"^^xsd:string ;
  mms:dataElementName "EXPDOSE"^^xsd:string ;
  mms:dataElementType "xsd:decimal"^^xsd:anySimpleType ;
  mms:ordinal "25"^^xsd:positiveInteger ;
  cdiscs:completionInstructions "Record the dose the subject was scheduled to receive."^^xsd:string ;
  cdiscs:prompt "Planned Dose"^^xsd:string ;
  cdiscs:questionText "What was the planned dose per administration?"^^xsd:string ;
.
<http://rdf.cdisc.org/std/cdash-1-1#DataElement.EX.EXPDOSEU>
  rdf:type mms:DataElement ;
  mms:context <http://rdf.cdisc.org/std/cdash-1-1#Domain.EX> ;
  mms:dataElementDescription "Units for EXPDOSE."^^xsd:string ;
  mms:dataElementLabel "Planned Dose Units"^^xsd:string ;
  mms:dataElementName "EXPDOSEU"^^xsd:string ;
  mms:dataElementType "xsd:string"^^xsd:anySimpleType ;
  mms:dataElementValueDomain cdashct:C78430 ;
  mms:ordinal "26"^^xsd:positiveInteger ;
  cdiscs:completionInstructions "Record the unit of dose or amount planned per period (e.g., ng, mg, mg/kg)."^^xsd:string ;
  cdiscs:controlledTermsOrFormat "UNIT"^^xsd:string ;
  cdiscs:prompt "Planned Dose Units"^^xsd:string ;
  cdiscs:questionText "What were the units for the planned dose?"^^xsd:string ;
.
<http://rdf.cdisc.org/std/cdash-1-1#DataElement.EX.EXPOCCUR>
  rdf:type mms:DataElement ;
  mms:context <http://rdf.cdisc.org/std/cdash-1-1#Domain.EX> ;
  mms:dataElementDescription "Indicator that the planned dose was administered."^^xsd:string ;
  mms:dataElementLabel "Planned dose administered?"^^xsd:string ;
  mms:dataElementName "EXPOCCUR"^^xsd:string ;
  mms:dataElementType "xsd:string"^^xsd:anySimpleType ;
  mms:dataElementValueDomain sdtmct:C66742 ;
  mms:ordinal "27"^^xsd:positiveInteger ;
  cdiscs:completionInstructions "Record whether the planned dose was administered."^^xsd:string ;
  cdiscs:controlledTermsOrFormat "NY"^^xsd:string ;
  cdiscs:prompt "Planned dose administered?"^^xsd:string ;
  cdiscs:questionText "Was the planned dose administered?"^^xsd:string ;
.
<http://rdf.cdisc.org/std/cdash-1-1#DataElement.EX.EXREFID>
  rdf:type mms:DataElement ;
  mms:context <http://rdf.cdisc.org/std/cdash-1-1#Domain.EX> ;
  mms:dataElementDescription "Treatment label identifier (e.g. kit number, bottle label, vial identifier)."^^xsd:string ;
  mms:dataElementLabel "Treatment label ID"^^xsd:string ;
  mms:dataElementName "EXREFID"^^xsd:string ;
  mms:dataElementType "xsd:string"^^xsd:anySimpleType ;
  mms:ordinal "4"^^xsd:positiveInteger ;
  cdiscs:completionInstructions "Record treatment label identifier."^^xsd:string ;
  cdiscs:prompt "Treatment label ID"^^xsd:string ;
  cdiscs:questionText "What is the treatment label identifier?"^^xsd:string ;
.
<http://rdf.cdisc.org/std/cdash-1-1#DataElement.EX.EXROUTE>
  rdf:type mms:DataElement ;
  mms:context <http://rdf.cdisc.org/std/cdash-1-1#Domain.EX> ;
  mms:dataElementDescription "Route of administration for EXTRT."^^xsd:string ;
  mms:dataElementLabel "Route"^^xsd:string ;
  mms:dataElementName "EXROUTE"^^xsd:string ;
  mms:dataElementType "xsd:string"^^xsd:anySimpleType ;
  mms:dataElementValueDomain cdashct:C78425 ;
  mms:ordinal "14"^^xsd:positiveInteger ;
  cdiscs:completionInstructions "Record the route of administration (e.g., IV, ORAL, TRANSDERMAL) or enter the appropriate code from the code list."^^xsd:string ;
  cdiscs:controlledTermsOrFormat "ROUTE"^^xsd:string ;
  cdiscs:prompt "Route"^^xsd:string ;
  cdiscs:questionText "What was the route of administration for the study treatment?"^^xsd:string ;
.
<http://rdf.cdisc.org/std/cdash-1-1#DataElement.EX.EXSTDAT>
  rdf:type mms:DataElement ;
  mms:context <http://rdf.cdisc.org/std/cdash-1-1#Domain.EX> ;
  mms:dataElementDescription "Start date of treatment."^^xsd:string ;
  mms:dataElementLabel "Start Date"^^xsd:string ;
  mms:dataElementName "EXSTDAT"^^xsd:string ;
  mms:dataElementType "xsd:date"^^xsd:anySimpleType ;
  mms:ordinal "2"^^xsd:positiveInteger ;
  cdiscs:completionInstructions "Record the start date of the study treatment administration using this format (DD-MON- YYYY)."^^xsd:string ;
  cdiscs:prompt "Start Date"^^xsd:string ;
  cdiscs:questionText "What was the treatment start date?"^^xsd:string ;
.
<http://rdf.cdisc.org/std/cdash-1-1#DataElement.EX.EXSTTIM>
  rdf:type mms:DataElement ;
  mms:context <http://rdf.cdisc.org/std/cdash-1-1#Domain.EX> ;
  mms:dataElementDescription "Start time of treatment."^^xsd:string ;
  mms:dataElementLabel "Start Time"^^xsd:string ;
  mms:dataElementName "EXSTTIM"^^xsd:string ;
  mms:dataElementType "xsd:time"^^xsd:anySimpleType ;
  mms:ordinal "3"^^xsd:positiveInteger ;
  cdiscs:completionInstructions "Record the start time (as complete as possible) when administration of study treatment started."^^xsd:string ;
  cdiscs:prompt "Start Time"^^xsd:string ;
  cdiscs:questionText "What was the treatment start time?"^^xsd:string ;
.
<http://rdf.cdisc.org/std/cdash-1-1#DataElement.EX.EXTPT>
  rdf:type mms:DataElement ;
  mms:context <http://rdf.cdisc.org/std/cdash-1-1#Domain.EX> ;
  mms:dataElementDescription "Planned time point name."^^xsd:string ;
  mms:dataElementLabel "<Planned Time Point>"^^xsd:string ;
  mms:dataElementName "EXTPT"^^xsd:string ;
  mms:dataElementType "xsd:string"^^xsd:anySimpleType ;
  mms:ordinal "23"^^xsd:positiveInteger ;
  cdiscs:completionInstructions "Record the planned time point of study treatment administration (e.g., 5 minutes post dose)."^^xsd:string ;
  cdiscs:prompt "<Planned Time Point>"^^xsd:string ;
  cdiscs:questionText "What was the planned time point for study treatment?"^^xsd:string ;
.
<http://rdf.cdisc.org/std/cdash-1-1#DataElement.EX.EXTRT>
  rdf:type mms:DataElement ;
  mms:context <http://rdf.cdisc.org/std/cdash-1-1#Domain.EX> ;
  mms:dataElementDescription "Name of the study treatment or intervention given per single administration or during the \"constant dosing interval\" for the observation."^^xsd:string ;
  mms:dataElementLabel "Treatment Name"^^xsd:string ;
  mms:dataElementName "EXTRT"^^xsd:string ;
  mms:dataElementType "xsd:string"^^xsd:anySimpleType ;
  mms:ordinal "10"^^xsd:positiveInteger ;
  cdiscs:completionInstructions "Record the name of study treatment."^^xsd:string ;
  cdiscs:prompt "Treatment Name"^^xsd:string ;
  cdiscs:questionText "What was the study treatment?"^^xsd:string ;
.
<http://rdf.cdisc.org/std/cdash-1-1#DataElement.EX.EXTRTCMP>
  rdf:type mms:DataElement ;
  mms:context <http://rdf.cdisc.org/std/cdash-1-1#Domain.EX> ;
  mms:dataElementDescription "Subject did not did not complete the intended regimen."^^xsd:string ;
  mms:dataElementLabel "Completed Treatment"^^xsd:string ;
  mms:dataElementName "EXTRTCMP"^^xsd:string ;
  mms:dataElementType "xsd:string"^^xsd:anySimpleType ;
  mms:dataElementValueDomain sdtmct:C66742 ;
  mms:ordinal "24"^^xsd:positiveInteger ;
  cdiscs:completionInstructions "Select either \"Yes\" or \"No\" to indicate whether subject has completed the full course of treatment."^^xsd:string ;
  cdiscs:controlledTermsOrFormat "NY"^^xsd:string ;
  cdiscs:prompt "Completed Treatment"^^xsd:string ;
  cdiscs:questionText "Did the subject complete the full course of study treatment?"^^xsd:string ;
.
<http://rdf.cdisc.org/std/cdash-1-1#DataElement.EX.EXVAMT>
  rdf:type mms:DataElement ;
  mms:context <http://rdf.cdisc.org/std/cdash-1-1#Domain.EX> ;
  mms:dataElementDescription "Total amount of study treatment (drug + vehicle) administered or given to the subject."^^xsd:string ;
  mms:dataElementLabel "Total Amount"^^xsd:string ;
  mms:dataElementName "EXVAMT"^^xsd:string ;
  mms:dataElementType "xsd:decimal"^^xsd:anySimpleType ;
  mms:ordinal "19"^^xsd:positiveInteger ;
  cdiscs:completionInstructions "Record the total amount that was administered/ given to the subject."^^xsd:string ;
  cdiscs:prompt "Total Amount"^^xsd:string ;
  cdiscs:questionText "What was the total amount administered?"^^xsd:string ;
.
<http://rdf.cdisc.org/std/cdash-1-1#DataElement.EX.EXVAMTU>
  rdf:type mms:DataElement ;
  mms:context <http://rdf.cdisc.org/std/cdash-1-1#Domain.EX> ;
  mms:dataElementDescription "The unit of measure for the exposure amount."^^xsd:string ;
  mms:dataElementLabel "Units"^^xsd:string ;
  mms:dataElementName "EXVAMTU"^^xsd:string ;
  mms:dataElementType "xsd:string"^^xsd:anySimpleType ;
  mms:dataElementValueDomain cdashct:C78428 ;
  mms:ordinal "20"^^xsd:positiveInteger ;
  cdiscs:completionInstructions "Record the unit of total amount administered/ given to the subject (e.g., mL)."^^xsd:string ;
  cdiscs:controlledTermsOrFormat "UNIT"^^xsd:string ;
  cdiscs:prompt "Units"^^xsd:string ;
  cdiscs:questionText "What were the units for the amount administered?"^^xsd:string ;
.
<http://rdf.cdisc.org/std/cdash-1-1#DataElement.EX.EXYN>
  rdf:type mms:DataElement ;
  mms:context <http://rdf.cdisc.org/std/cdash-1-1#Domain.EX> ;
  mms:dataElementDescription "A general prompt question to aid in monitoring and data cleaning.  Indicates if data is available regarding whether the subject took study medication/ treatment."^^xsd:string ;
  mms:dataElementLabel "Treatment?"^^xsd:string ;
  mms:dataElementName "EXYN"^^xsd:string ;
  mms:dataElementType "xsd:string"^^xsd:anySimpleType ;
  mms:dataElementValueDomain sdtmct:C66742 ;
  mms:ordinal "1"^^xsd:positiveInteger ;
  cdiscs:completionInstructions "Indicate if the subject took any medications.  If \"Yes\", include the appropriate details where indicated."^^xsd:string ;
  cdiscs:controlledTermsOrFormat "NY"^^xsd:string ;
  cdiscs:prompt "Treatment?"^^xsd:string ;
  cdiscs:questionText "Is treatment data available?"^^xsd:string ;
.
<http://rdf.cdisc.org/std/cdash-1-1#DataElement.IE.IECAT>
  rdf:type mms:DataElement ;
  mms:context <http://rdf.cdisc.org/std/cdash-1-1#Domain.IE> ;
  mms:dataElementDescription "Specifies whether the criterion is inclusion or exclusion."^^xsd:string ;
  mms:dataElementLabel "Criterion Type"^^xsd:string ;
  mms:dataElementName "IECAT"^^xsd:string ;
  mms:dataElementType "xsd:string"^^xsd:anySimpleType ;
  mms:ordinal "2"^^xsd:positiveInteger ;
  cdiscs:completionInstructions "Record whether the criterion that this subject did not meet was \"Inclusion\" or \"Exclusion\". Checkbox: Check \"Inclusion\" or \"Exclusion\"."^^xsd:string ;
  cdiscs:prompt "Criterion Type"^^xsd:string ;
  cdiscs:questionText "What was the category of the criterion?"^^xsd:string ;
.
<http://rdf.cdisc.org/std/cdash-1-1#DataElement.IE.IETEST>
  rdf:type mms:DataElement ;
  mms:context <http://rdf.cdisc.org/std/cdash-1-1#Domain.IE> ;
  mms:dataElementDescription "The wording of an inclusion or exclusion criterion."^^xsd:string ;
  mms:dataElementLabel "Criterion Description"^^xsd:string ;
  mms:dataElementName "IETEST"^^xsd:string ;
  mms:dataElementType "xsd:string"^^xsd:anySimpleType ;
  mms:ordinal "4"^^xsd:positiveInteger ;
  cdiscs:completionInstructions "EDC: Verify the wording of this criterion."^^xsd:string ;
  cdiscs:prompt "Criterion Description"^^xsd:string ;
  cdiscs:questionText "What is the description of the criterion the subject did not meet?"^^xsd:string ;
.
<http://rdf.cdisc.org/std/cdash-1-1#DataElement.IE.IETESTCD>
  rdf:type mms:DataElement ;
  mms:context <http://rdf.cdisc.org/std/cdash-1-1#Domain.IE> ;
  mms:dataElementDescription "The identifier associated with the criterion that the subject did not meet.  This must be a unique identifier that corresponds to a specific entry criterion."^^xsd:string ;
  mms:dataElementLabel "Criterion ID Not Met"^^xsd:string ;
  mms:dataElementName "IETESTCD"^^xsd:string ;
  mms:dataElementType "xsd:string"^^xsd:anySimpleType ;
  mms:ordinal "3"^^xsd:positiveInteger ;
  cdiscs:completionInstructions "If \"No\", enter the identifying code for each criterion not met.  Record this only for the criterion/criteria that this subject did not meetii Paper: Record the criterion identifier from the list of inclusion/ exclusion criteria provided by the sponsor. EDC: Select the criterion from the pick-list."^^xsd:string ;
  cdiscs:prompt "Criterion ID Not Met"^^xsd:string ;
  cdiscs:questionText "What is the identifier of the criterion the subject did not meet?"^^xsd:string ;
.
<http://rdf.cdisc.org/std/cdash-1-1#DataElement.IE.IEYN>
  rdf:type mms:DataElement ;
  mms:context <http://rdf.cdisc.org/std/cdash-1-1#Domain.IE> ;
  mms:dataElementDescription "Response for whether the subject met all the eligibility requirements for this study at the time the subject was enrolled. Did subject meet all eligibility criteria?"^^xsd:string ;
  mms:dataElementLabel "Met Criteria"^^xsd:string ;
  mms:dataElementName "IEYN"^^xsd:string ;
  mms:dataElementType "xsd:string"^^xsd:anySimpleType ;
  mms:dataElementValueDomain sdtmct:C66742 ;
  mms:ordinal "1"^^xsd:positiveInteger ;
  cdiscs:completionInstructions "Record \"Yes\" if all eligibility criteria were met for the study.  Record \"No\" if subject did not meet all criteria at the time the subject was enrolled."^^xsd:string ;
  cdiscs:controlledTermsOrFormat "NY"^^xsd:string ;
  cdiscs:prompt "Met Criteria"^^xsd:string ;
  cdiscs:questionText "Did the subject meet all eligibility criteria?"^^xsd:string ;
.
<http://rdf.cdisc.org/std/cdash-1-1#DataElement.LB.LBCAT>
  rdf:type mms:DataElement ;
  mms:context <http://rdf.cdisc.org/std/cdash-1-1#Domain.LB> ;
  mms:dataElementDescription "Used to define a category of related laboratory records (e.g. HEMATOLOGY, CHEMISTRY, URINALYSIS)."^^xsd:string ;
  mms:dataElementLabel "<Panel Name>"^^xsd:string ;
  mms:dataElementName "LBCAT"^^xsd:string ;
  mms:dataElementType "xsd:string"^^xsd:anySimpleType ;
  mms:ordinal "4"^^xsd:positiveInteger ;
  cdiscs:completionInstructions "Record the lab test category, if not pre-printed on the CRF."^^xsd:string ;
  cdiscs:prompt "<Panel Name>"^^xsd:string ;
  cdiscs:questionText "What was the lab panel name?"^^xsd:string ;
.
<http://rdf.cdisc.org/std/cdash-1-1#DataElement.LB.LBCLSIG>
  rdf:type mms:DataElement ;
  mms:context <http://rdf.cdisc.org/std/cdash-1-1#Domain.LB> ;
  mms:dataElementDescription "Whether lab test results were clinically significant."^^xsd:string ;
  mms:dataElementLabel "Clinically Significant"^^xsd:string ;
  mms:dataElementName "LBCLSIG"^^xsd:string ;
  mms:dataElementType "xsd:string"^^xsd:anySimpleType ;
  mms:ordinal "17"^^xsd:positiveInteger ;
  cdiscs:completionInstructions "Record whether lab results were clinically significant."^^xsd:string ;
  cdiscs:prompt "Clinically Significant"^^xsd:string ;
  cdiscs:questionText "Was this result clinically significant?"^^xsd:string ;
.
<http://rdf.cdisc.org/std/cdash-1-1#DataElement.LB.LBCOND>
  rdf:type mms:DataElement ;
  mms:context <http://rdf.cdisc.org/std/cdash-1-1#Domain.LB> ;
  mms:dataElementDescription "Confirmation that the protocol defined condition imposed on the subject when  testing (e.g., FASTING, HYDRATION, EXERCISE) was met. If collecting this as a Yes/No, use {NY}."^^xsd:string ;
  mms:dataElementLabel "<protocol- defined testing condition> e.g., Fasting?"^^xsd:string ;
  mms:dataElementName "LBCOND"^^xsd:string ;
  mms:dataElementType "xsd:string"^^xsd:anySimpleType ;
  mms:dataElementValueDomain sdtmct:C66742 ;
  mms:ordinal "7"^^xsd:positiveInteger ;
  cdiscs:completionInstructions "Record whether protocol defined testing conditions were met."^^xsd:string ;
  cdiscs:controlledTermsOrFormat "NY"^^xsd:string ;
  cdiscs:prompt "<protocol- defined testing condition> e.g., Fasting?"^^xsd:string ;
  cdiscs:questionText "Did the subject meet <protocol- defined testing condition> requirements?"^^xsd:string ;
.
<http://rdf.cdisc.org/std/cdash-1-1#DataElement.LB.LBDAT>
  rdf:type mms:DataElement ;
  mms:context <http://rdf.cdisc.org/std/cdash-1-1#Domain.LB> ;
  mms:dataElementDescription "Date of specimen collection."^^xsd:string ;
  mms:dataElementLabel "Collection Date"^^xsd:string ;
  mms:dataElementName "LBDAT"^^xsd:string ;
  mms:dataElementType "xsd:date"^^xsd:anySimpleType ;
  mms:ordinal "2"^^xsd:positiveInteger ;
  cdiscs:completionInstructions "Record the date when specimen collection occurred using this format (DD-MON- YYYY)."^^xsd:string ;
  cdiscs:prompt "Collection Date"^^xsd:string ;
  cdiscs:questionText "What was the lab specimen collection date?"^^xsd:string ;
.
<http://rdf.cdisc.org/std/cdash-1-1#DataElement.LB.LBNAM>
  rdf:type mms:DataElement ;
  mms:context <http://rdf.cdisc.org/std/cdash-1-1#Domain.LB> ;
  mms:dataElementDescription "Name of lab analyzing specimen."^^xsd:string ;
  mms:dataElementLabel "Laboratory Name"^^xsd:string ;
  mms:dataElementName "LBNAM"^^xsd:string ;
  mms:dataElementType "xsd:string"^^xsd:anySimpleType ;
  mms:ordinal "18"^^xsd:positiveInteger ;
  cdiscs:completionInstructions "Record the laboratory name."^^xsd:string ;
  cdiscs:prompt "Laboratory Name"^^xsd:string ;
  cdiscs:questionText "What was the name of the laboratory used?"^^xsd:string ;
.
<http://rdf.cdisc.org/std/cdash-1-1#DataElement.LB.LBNRIND>
  rdf:type mms:DataElement ;
  mms:context <http://rdf.cdisc.org/std/cdash-1-1#Domain.LB> ;
  mms:dataElementDescription "Reference Range Indicator Indicates where value falls with respect to reference range defined by high and low ranges."^^xsd:string ;
  mms:dataElementLabel "Abnormal"^^xsd:string ;
  mms:dataElementName "LBNRIND"^^xsd:string ;
  mms:dataElementType "xsd:string"^^xsd:anySimpleType ;
  mms:dataElementValueDomain sdtmct:C78736 ;
  mms:ordinal "16"^^xsd:positiveInteger ;
  cdiscs:completionInstructions "Record where the specimen fell with respect to the reference range (e.g. HIGH, LOW, ABNORMAL)."^^xsd:string ;
  cdiscs:controlledTermsOrFormat "NRIND"^^xsd:string ;
  cdiscs:prompt "Abnormal"^^xsd:string ;
  cdiscs:questionText "Was the result for this test abnormal?"^^xsd:string ;
.
<http://rdf.cdisc.org/std/cdash-1-1#DataElement.LB.LBORNRHI>
  rdf:type mms:DataElement ;
  mms:context <http://rdf.cdisc.org/std/cdash-1-1#Domain.LB> ;
  mms:dataElementDescription "The highest continuous numeric value of a given lab result expected in the population of interest."^^xsd:string ;
  mms:dataElementLabel "High Normal"^^xsd:string ;
  mms:dataElementName "LBORNRHI"^^xsd:string ;
  mms:dataElementType "xsd:string"^^xsd:anySimpleType ;
  mms:ordinal "15"^^xsd:positiveInteger ;
  cdiscs:completionInstructions "Record the upper limit of the reference range of the lab test."^^xsd:string ;
  cdiscs:prompt "High Normal"^^xsd:string ;
  cdiscs:questionText "What was the high limit of the reference range for this test?"^^xsd:string ;
.
<http://rdf.cdisc.org/std/cdash-1-1#DataElement.LB.LBORNRLO>
  rdf:type mms:DataElement ;
  mms:context <http://rdf.cdisc.org/std/cdash-1-1#Domain.LB> ;
  mms:dataElementDescription "The lowest continuous numeric value of a given lab result expected in the population of interest."^^xsd:string ;
  mms:dataElementLabel "Low Normal"^^xsd:string ;
  mms:dataElementName "LBORNRLO"^^xsd:string ;
  mms:dataElementType "xsd:string"^^xsd:anySimpleType ;
  mms:ordinal "14"^^xsd:positiveInteger ;
  cdiscs:completionInstructions "Record the lower limit of the reference range of the lab test."^^xsd:string ;
  cdiscs:prompt "Low Normal"^^xsd:string ;
  cdiscs:questionText "What was the lower limit of the reference range for this test?"^^xsd:string ;
.
<http://rdf.cdisc.org/std/cdash-1-1#DataElement.LB.LBORRES>
  rdf:type mms:DataElement ;
  mms:context <http://rdf.cdisc.org/std/cdash-1-1#Domain.LB> ;
  mms:dataElementDescription "Result of the measurement or finding as originally received or collected."^^xsd:string ;
  mms:dataElementLabel "Result"^^xsd:string ;
  mms:dataElementName "LBORRES"^^xsd:string ;
  mms:dataElementType "xsd:string"^^xsd:anySimpleType ;
  mms:ordinal "12"^^xsd:positiveInteger ;
  cdiscs:completionInstructions "Record test results."^^xsd:string ;
  cdiscs:prompt "Result"^^xsd:string ;
  cdiscs:questionText "What was the result of the test?"^^xsd:string ;
.
<http://rdf.cdisc.org/std/cdash-1-1#DataElement.LB.LBORRESU>
  rdf:type mms:DataElement ;
  mms:context <http://rdf.cdisc.org/std/cdash-1-1#Domain.LB> ;
  mms:dataElementDescription "Original units in which the data were collected."^^xsd:string ;
  mms:dataElementLabel "Units"^^xsd:string ;
  mms:dataElementName "LBORRESU"^^xsd:string ;
  mms:dataElementType "xsd:string"^^xsd:anySimpleType ;
  mms:ordinal "13"^^xsd:positiveInteger ;
  cdiscs:completionInstructions "Record the units of the lab test, if not pre-printed on the CRF or captured in an external \"lab normal\" file."^^xsd:string ;
  cdiscs:prompt "Units"^^xsd:string ;
  cdiscs:questionText "What were the units for the result?"^^xsd:string ;
.
<http://rdf.cdisc.org/std/cdash-1-1#DataElement.LB.LBPERF>
  rdf:type mms:DataElement ;
  mms:context <http://rdf.cdisc.org/std/cdash-1-1#Domain.LB> ;
  mms:dataElementDescription "Status of whether or not lab specimen was collected or measurement performed."^^xsd:string ;
  mms:dataElementLabel "Lab Status"^^xsd:string ;
  mms:dataElementName "LBPERF"^^xsd:string ;
  mms:dataElementType "xsd:string"^^xsd:anySimpleType ;
  mms:dataElementValueDomain sdtmct:C66742 ;
  mms:ordinal "1"^^xsd:positiveInteger ;
  cdiscs:completionInstructions "Indicate whether or not lab specimen was collected or measurement performed."^^xsd:string ;
  cdiscs:controlledTermsOrFormat "NY"^^xsd:string ;
  cdiscs:prompt "Lab Status"^^xsd:string ;
  cdiscs:questionText "Was the sample collected? or Was the lab performed?"^^xsd:string ;
.
<http://rdf.cdisc.org/std/cdash-1-1#DataElement.LB.LBREFID>
  rdf:type mms:DataElement ;
  mms:context <http://rdf.cdisc.org/std/cdash-1-1#Domain.LB> ;
  mms:dataElementDescription "Internal or external specimen identifier."^^xsd:string ;
  mms:dataElementLabel "Accession Number"^^xsd:string ;
  mms:dataElementName "LBREFID"^^xsd:string ;
  mms:dataElementType "xsd:string"^^xsd:anySimpleType ;
  mms:ordinal "8"^^xsd:positiveInteger ;
  cdiscs:completionInstructions "Record the specimen or accession number assigned."^^xsd:string ;
  cdiscs:prompt "Accession Number"^^xsd:string ;
  cdiscs:questionText "What was the accession number?"^^xsd:string ;
.
<http://rdf.cdisc.org/std/cdash-1-1#DataElement.LB.LBSCAT>
  rdf:type mms:DataElement ;
  mms:context <http://rdf.cdisc.org/std/cdash-1-1#Domain.LB> ;
  mms:dataElementDescription "Used to define a sub- category of related laboratory records (e.g. Electrolytes, Liver Function)."^^xsd:string ;
  mms:dataElementLabel "<Sub-Panel Name>"^^xsd:string ;
  mms:dataElementName "LBSCAT"^^xsd:string ;
  mms:dataElementType "xsd:string"^^xsd:anySimpleType ;
  mms:ordinal "5"^^xsd:positiveInteger ;
  cdiscs:completionInstructions "Record the lab test sub- category, if not pre-printed on the CRF."^^xsd:string ;
  cdiscs:prompt "<Sub-Panel Name>"^^xsd:string ;
  cdiscs:questionText "What was the lab sub-panel name?"^^xsd:string ;
.
<http://rdf.cdisc.org/std/cdash-1-1#DataElement.LB.LBSPCCND>
  rdf:type mms:DataElement ;
  mms:context <http://rdf.cdisc.org/std/cdash-1-1#Domain.LB> ;
  mms:dataElementDescription "Free or standardized text describing the condition of the specimen."^^xsd:string ;
  mms:dataElementLabel "Specimen Condition"^^xsd:string ;
  mms:dataElementName "LBSPCCND"^^xsd:string ;
  mms:ordinal "9"^^xsd:positiveInteger ;
  cdiscs:completionInstructions "Record condition of specimen."^^xsd:string ;
  cdiscs:prompt "Specimen Condition"^^xsd:string ;
  cdiscs:questionText "What was the condition of the specimen?"^^xsd:string ;
.
<http://rdf.cdisc.org/std/cdash-1-1#DataElement.LB.LBTEST>
  rdf:type mms:DataElement ;
  mms:context <http://rdf.cdisc.org/std/cdash-1-1#Domain.LB> ;
  mms:dataElementDescription "Verbatim name of the test or examination used to obtain the measurement or finding. Any test normally performed by a clinical laboratory is considered a lab test."^^xsd:string ;
  mms:dataElementLabel "<Test Name>"^^xsd:string ;
  mms:dataElementName "LBTEST"^^xsd:string ;
  mms:dataElementType "xsd:string"^^xsd:anySimpleType ;
  mms:dataElementValueDomain sdtmct:C67154 ;
  mms:ordinal "10"^^xsd:positiveInteger ;
  cdiscs:completionInstructions "Record the type or name of the lab test, if not pre-printed on the CRF."^^xsd:string ;
  cdiscs:controlledTermsOrFormat "LBTEST"^^xsd:string ;
  cdiscs:prompt "<Test Name>"^^xsd:string ;
  cdiscs:questionText "What is the test name?"^^xsd:string ;
.
<http://rdf.cdisc.org/std/cdash-1-1#DataElement.LB.LBTESTCD>
  rdf:type mms:DataElement ;
  mms:context <http://rdf.cdisc.org/std/cdash-1-1#Domain.LB> ;
  mms:dataElementDescription "Terminology used for Laboratory Tests of the CDISC Standard Data Tabulation Model."^^xsd:string ;
  mms:dataElementLabel "<Test Name Coded>"^^xsd:string ;
  mms:dataElementName "LBTESTCD"^^xsd:string ;
  mms:dataElementType "xsd:string"^^xsd:anySimpleType ;
  mms:dataElementValueDomain sdtmct:C65047 ;
  mms:ordinal "11"^^xsd:positiveInteger ;
  cdiscs:controlledTermsOrFormat "LBTESTCD"^^xsd:string ;
  cdiscs:prompt "<Test Name Coded>"^^xsd:string ;
  cdiscs:questionText "What is the test name?"^^xsd:string ;
.
<http://rdf.cdisc.org/std/cdash-1-1#DataElement.LB.LBTIM>
  rdf:type mms:DataElement ;
  mms:context <http://rdf.cdisc.org/std/cdash-1-1#Domain.LB> ;
  mms:dataElementDescription "Time of specimen collection."^^xsd:string ;
  mms:dataElementLabel "Collection Time"^^xsd:string ;
  mms:dataElementName "LBTIM"^^xsd:string ;
  mms:dataElementType "xsd:time"^^xsd:anySimpleType ;
  mms:ordinal "3"^^xsd:positiveInteger ;
  cdiscs:completionInstructions "Record time of collection (as complete as possible)."^^xsd:string ;
  cdiscs:prompt "Collection Time"^^xsd:string ;
  cdiscs:questionText "What was the lab specimen collection time?"^^xsd:string ;
.
<http://rdf.cdisc.org/std/cdash-1-1#DataElement.LB.LBTPT>
  rdf:type mms:DataElement ;
  mms:context <http://rdf.cdisc.org/std/cdash-1-1#Domain.LB> ;
  mms:dataElementDescription "Text description of planned time point when measurements should be taken for use when multiple sequential assessments are done."^^xsd:string ;
  mms:dataElementLabel "<Planned Time Point>"^^xsd:string ;
  mms:dataElementName "LBTPT"^^xsd:string ;
  mms:dataElementType "xsd:string"^^xsd:anySimpleType ;
  mms:ordinal "6"^^xsd:positiveInteger ;
  cdiscs:completionInstructions "Record the planned time point labels for the lab test, if not pre-printed on the CRF."^^xsd:string ;
  cdiscs:prompt "<Planned Time Point>"^^xsd:string ;
  cdiscs:questionText "What was the planned time point of the lab?"^^xsd:string ;
.
<http://rdf.cdisc.org/std/cdash-1-1#DataElement.MH.MHCAT>
  rdf:type mms:DataElement ;
  mms:context <http://rdf.cdisc.org/std/cdash-1-1#Domain.MH> ;
  mms:dataElementDescription "Used to define a category of related records (e.g., CARDIAC, GENERAL)."^^xsd:string ;
  mms:dataElementLabel "<MH Category>"^^xsd:string ;
  mms:dataElementName "MHCAT"^^xsd:string ;
  mms:dataElementType "xsd:string"^^xsd:anySimpleType ;
  mms:ordinal "3"^^xsd:positiveInteger ;
  cdiscs:completionInstructions "Not applicable."^^xsd:string ;
  cdiscs:prompt "<MH Category>"^^xsd:string ;
  cdiscs:questionText "Not Applicable (This would be a heading on the CRF or screen, not a question)"^^xsd:string ;
.
<http://rdf.cdisc.org/std/cdash-1-1#DataElement.MH.MHCTRL>
  rdf:type mms:DataElement ;
  mms:context <http://rdf.cdisc.org/std/cdash-1-1#Domain.MH> ;
  mms:dataElementDescription "Indicates that the disease/symptoms are under control at the time of data collection."^^xsd:string ;
  mms:dataElementLabel "Controlled"^^xsd:string ;
  mms:dataElementName "MHCTRL"^^xsd:string ;
  mms:dataElementType "xsd:string"^^xsd:anySimpleType ;
  mms:dataElementValueDomain sdtmct:C66742 ;
  mms:ordinal "7"^^xsd:positiveInteger ;
  cdiscs:completionInstructions "Select the most appropriate response."^^xsd:string ;
  cdiscs:controlledTermsOrFormat "NY"^^xsd:string ;
  cdiscs:prompt "Controlled"^^xsd:string ;
  cdiscs:questionText "Is the medical history disease/conditi on under control?"^^xsd:string ;
.
<http://rdf.cdisc.org/std/cdash-1-1#DataElement.MH.MHDAT>
  rdf:type mms:DataElement ;
  mms:context <http://rdf.cdisc.org/std/cdash-1-1#Domain.MH> ;
  mms:dataElementDescription "The date on which the Medical History was collected."^^xsd:string ;
  mms:dataElementLabel "Collection Date"^^xsd:string ;
  mms:dataElementName "MHDAT"^^xsd:string ;
  mms:dataElementType "xsd:date"^^xsd:anySimpleType ;
  mms:ordinal "11"^^xsd:positiveInteger ;
  cdiscs:completionInstructions "Record the date on which the Medical History was taken using this format (DD-MON- YYYY)."^^xsd:string ;
  cdiscs:prompt "Collection Date"^^xsd:string ;
  cdiscs:questionText "What was the date that the medical history was collected?"^^xsd:string ;
.
<http://rdf.cdisc.org/std/cdash-1-1#DataElement.MH.MHENDAT>
  rdf:type mms:DataElement ;
  mms:context <http://rdf.cdisc.org/std/cdash-1-1#Domain.MH> ;
  mms:dataElementDescription "End date of Medical History event."^^xsd:string ;
  mms:dataElementLabel "End Date"^^xsd:string ;
  mms:dataElementName "MHENDAT"^^xsd:string ;
  mms:dataElementType "xsd:date"^^xsd:anySimpleType ;
  mms:ordinal "10"^^xsd:positiveInteger ;
  cdiscs:completionInstructions "Record the end date using this format (DD-MON- YYYY)."^^xsd:string ;
  cdiscs:prompt "End Date"^^xsd:string ;
  cdiscs:questionText "What was the date the medical history event or condition ended?"^^xsd:string ;
.
<http://rdf.cdisc.org/std/cdash-1-1#DataElement.MH.MHOCCUR>
  rdf:type mms:DataElement ;
  mms:context <http://rdf.cdisc.org/std/cdash-1-1#Domain.MH> ;
  mms:dataElementDescription "A response to a pre- printed term used to indicate whether or not a medical condition has occurred."^^xsd:string ;
  mms:dataElementLabel "<specific condition> Example: High blood pressure OR <specific procedure> Example: Appendectomy"^^xsd:string ;
  mms:dataElementName "MHOCCUR"^^xsd:string ;
  mms:dataElementType "xsd:string"^^xsd:anySimpleType ;
  mms:dataElementValueDomain sdtmct:C66742 ;
  mms:ordinal "8"^^xsd:positiveInteger ;
  cdiscs:completionInstructions "Please indicate if <specific condition> has occurred /is occurring by checking \"Yes\" or \"No\"."^^xsd:string ;
  cdiscs:controlledTermsOrFormat "NY"^^xsd:string ;
  cdiscs:prompt "<specific condition> Example: High blood pressure OR <specific procedure> Example: Appendectomy"^^xsd:string ;
  cdiscs:questionText "Does the subject have <specific condition>? Example: Does the subject have high blood pressure? OR Has the subject had <specific procedure>? Example: Has the subject had an appendectomy?"^^xsd:string ;
.
<http://rdf.cdisc.org/std/cdash-1-1#DataElement.MH.MHONGO>
  rdf:type mms:DataElement ;
  mms:context <http://rdf.cdisc.org/std/cdash-1-1#Domain.MH> ;
  mms:dataElementDescription "Indicates medical history event is ongoing when no End Date is provided."^^xsd:string ;
  mms:dataElementLabel "Ongoing"^^xsd:string ;
  mms:dataElementName "MHONGO"^^xsd:string ;
  mms:dataElementType "xsd:string"^^xsd:anySimpleType ;
  mms:dataElementValueDomain sdtmct:C66742 ;
  mms:ordinal "6"^^xsd:positiveInteger ;
  cdiscs:completionInstructions "Select the most appropriate response."^^xsd:string ;
  cdiscs:controlledTermsOrFormat "NY"^^xsd:string ;
  cdiscs:prompt "Ongoing"^^xsd:string ;
  cdiscs:questionText "Is the medical history disease/conditi on or event still ongoing?"^^xsd:string ;
.
<http://rdf.cdisc.org/std/cdash-1-1#DataElement.MH.MHSCAT>
  rdf:type mms:DataElement ;
  mms:context <http://rdf.cdisc.org/std/cdash-1-1#Domain.MH> ;
  mms:dataElementDescription "A categorization of the condition or event pre- printed on the CRF or instructions."^^xsd:string ;
  mms:dataElementLabel "<MH Subcategory>"^^xsd:string ;
  mms:dataElementName "MHSCAT"^^xsd:string ;
  mms:dataElementType "xsd:string"^^xsd:anySimpleType ;
  mms:ordinal "4"^^xsd:positiveInteger ;
  cdiscs:completionInstructions "The CRF instructions will depend upon the format of the CRF. Some sponsors ask the sites to use a numeric code (e.g., \"123\") to designate a particular category (e.g., \"cardiovascular\") while other sponsors will simply pre-print the categories on the CRF and/or provide space for the site to record the ailment, disease or surgery. Instruction examples: Use the (sponsor-defined) code list to group the past and/or concomitant medical conditions or surgeries.  For example, if the subject has a history of high blood pressure, use code \"123\" for \"cardiovascular\". OR Record the concomitant medical conditions or past surgeries under the appropriate category.  For example, \"high blood pressure\" should be recorded under \"cardiovascular\"."^^xsd:string ;
  cdiscs:prompt "<MH Subcategory>"^^xsd:string ;
  cdiscs:questionText "Not Applicable (This would be a heading on the CRF or screen, not a question)"^^xsd:string ;
.
<http://rdf.cdisc.org/std/cdash-1-1#DataElement.MH.MHSPID>
  rdf:type mms:DataElement ;
  mms:context <http://rdf.cdisc.org/std/cdash-1-1#Domain.MH> ;
  mms:dataElementDescription "A sponsor-defined identifier which can be used for pre-printed numbers on the CRF."^^xsd:string ;
  mms:dataElementLabel "<line number> or <MH number>"^^xsd:string ;
  mms:dataElementName "MHSPID"^^xsd:string ;
  mms:dataElementType "xsd:string"^^xsd:anySimpleType ;
  mms:ordinal "2"^^xsd:positiveInteger ;
  cdiscs:completionInstructions "Record unique identifier for each medical history condition for this subject. Number sequence for all following pages should not duplicate existing numbers for the subject."^^xsd:string ;
  cdiscs:prompt "<line number> or <MH number>"^^xsd:string ;
  cdiscs:questionText "What is the medical history identifier?"^^xsd:string ;
.
<http://rdf.cdisc.org/std/cdash-1-1#DataElement.MH.MHSTDAT>
  rdf:type mms:DataElement ;
  mms:context <http://rdf.cdisc.org/std/cdash-1-1#Domain.MH> ;
  mms:dataElementDescription "Start date of Medical History event."^^xsd:string ;
  mms:dataElementLabel "Start Date"^^xsd:string ;
  mms:dataElementName "MHSTDAT"^^xsd:string ;
  mms:dataElementType "xsd:date"^^xsd:anySimpleType ;
  mms:ordinal "9"^^xsd:positiveInteger ;
  cdiscs:completionInstructions "Record the start date using this format (DD-MON- YYYY)."^^xsd:string ;
  cdiscs:prompt "Start Date"^^xsd:string ;
  cdiscs:questionText "What was the date the medical history event or condition started?"^^xsd:string ;
.
<http://rdf.cdisc.org/std/cdash-1-1#DataElement.MH.MHTERM>
  rdf:type mms:DataElement ;
  mms:context <http://rdf.cdisc.org/std/cdash-1-1#Domain.MH> ;
  mms:dataElementDescription "Verbatim or preprinted CRF term for the medical condition or event."^^xsd:string ;
  mms:dataElementLabel "<Medical History Term>"^^xsd:string ;
  mms:dataElementName "MHTERM"^^xsd:string ;
  mms:dataElementType "xsd:string"^^xsd:anySimpleType ;
  mms:ordinal "5"^^xsd:positiveInteger ;
  cdiscs:completionInstructions "Record all relevant past and/or concomitant medical conditions and past surgeries, as defined in the protocol. Record only one condition or surgery per line. When recording a condition and surgery related to that condition, use one line for the condition and one line for the surgery.  Ensure that any of the conditions listed on the Medical History page do not meet any of the exclusion criteria."^^xsd:string ;
  cdiscs:prompt "<Medical History Term>"^^xsd:string ;
  cdiscs:questionText "What is the verbatim term for the medical history condition/event?"^^xsd:string ;
.
<http://rdf.cdisc.org/std/cdash-1-1#DataElement.MH.MHYN>
  rdf:type mms:DataElement ;
  mms:context <http://rdf.cdisc.org/std/cdash-1-1#Domain.MH> ;
  mms:dataElementDescription "General prompt question to aid in monitoring and data cleaning."^^xsd:string ;
  mms:dataElementLabel "Any medical history?"^^xsd:string ;
  mms:dataElementName "MHYN"^^xsd:string ;
  mms:dataElementType "xsd:string"^^xsd:anySimpleType ;
  mms:dataElementValueDomain sdtmct:C66742 ;
  mms:ordinal "1"^^xsd:positiveInteger ;
  cdiscs:completionInstructions "If the subject has experienced any past and/or concomitant diseases or has had any type of surgery, select \"Yes\" and provide the requested information. Otherwise, select \"No\" and leave the page blank."^^xsd:string ;
  cdiscs:controlledTermsOrFormat "NY"^^xsd:string ;
  cdiscs:prompt "Any medical history?"^^xsd:string ;
  cdiscs:questionText "Has the subject experienced any past and/ or concomitant diseases or past surgeries?"^^xsd:string ;
.
<http://rdf.cdisc.org/std/cdash-1-1#DataElement.PE.PECLSIG>
  rdf:type mms:DataElement ;
  mms:context <http://rdf.cdisc.org/std/cdash-1-1#Domain.PE> ;
  mms:dataElementDescription "Whether physical examination abnormality is clinically significant."^^xsd:string ;
  mms:dataElementLabel "Clinically significant"^^xsd:string ;
  mms:dataElementName "PECLSIG"^^xsd:string ;
  mms:dataElementType "xsd:string"^^xsd:anySimpleType ;
  mms:ordinal "8"^^xsd:positiveInteger ;
  cdiscs:completionInstructions "Record whether abnormality is clinically significant."^^xsd:string ;
  cdiscs:prompt "Clinically significant"^^xsd:string ;
  cdiscs:questionText "Was the physical examination result clinically significant?"^^xsd:string ;
.
<http://rdf.cdisc.org/std/cdash-1-1#DataElement.PE.PEDAT>
  rdf:type mms:DataElement ;
  mms:context <http://rdf.cdisc.org/std/cdash-1-1#Domain.PE> ;
  mms:dataElementDescription "Date of examination."^^xsd:string ;
  mms:dataElementLabel "Exam Date"^^xsd:string ;
  mms:dataElementName "PEDAT"^^xsd:string ;
  mms:dataElementType "xsd:date"^^xsd:anySimpleType ;
  mms:ordinal "2"^^xsd:positiveInteger ;
  cdiscs:completionInstructions "Record complete date of examination, day, month and year using this format (DD- MON-YYYY)."^^xsd:string ;
  cdiscs:prompt "Exam Date"^^xsd:string ;
  cdiscs:questionText "What was the physical examination date?"^^xsd:string ;
.
<http://rdf.cdisc.org/std/cdash-1-1#DataElement.PE.PEDESC>
  rdf:type mms:DataElement ;
  mms:context <http://rdf.cdisc.org/std/cdash-1-1#Domain.PE> ;
  mms:dataElementDescription "Text description of any abnormal findings."^^xsd:string ;
  mms:dataElementLabel "Abnormal Findings"^^xsd:string ;
  mms:dataElementName "PEDESC"^^xsd:string ;
  mms:dataElementType "xsd:string"^^xsd:anySimpleType ;
  mms:ordinal "7"^^xsd:positiveInteger ;
  cdiscs:completionInstructions "Record all abnormal findings for the given body system in the space provided."^^xsd:string ;
  cdiscs:prompt "Abnormal Findings"^^xsd:string ;
  cdiscs:questionText "If the result was abnormal, what were the findings?"^^xsd:string ;
.
<http://rdf.cdisc.org/std/cdash-1-1#DataElement.PE.PEEVAL>
  rdf:type mms:DataElement ;
  mms:context <http://rdf.cdisc.org/std/cdash-1-1#Domain.PE> ;
  mms:dataElementDescription "Role of the person who provided the evaluation."^^xsd:string ;
  mms:dataElementLabel "Evaluator"^^xsd:string ;
  mms:dataElementName "PEEVAL"^^xsd:string ;
  mms:dataElementType "xsd:string"^^xsd:anySimpleType ;
  mms:ordinal "9"^^xsd:positiveInteger ;
  cdiscs:completionInstructions "Enter the role of the person who provided the evaluation (e.g., INVESTIGATOR, ADJUDICATION COMMITTEE, VENDOR)."^^xsd:string ;
  cdiscs:prompt "Evaluator"^^xsd:string ;
  cdiscs:questionText "What was the role of the person performing the physical examination?"^^xsd:string ;
.
<http://rdf.cdisc.org/std/cdash-1-1#DataElement.PE.PEPERF>
  rdf:type mms:DataElement ;
  mms:context <http://rdf.cdisc.org/std/cdash-1-1#Domain.PE> ;
  mms:dataElementDescription "Used to indicate if the overall physical examination was performed as scheduled. Was the physical examination performed?"^^xsd:string ;
  mms:dataElementLabel "Exam performed"^^xsd:string ;
  mms:dataElementName "PEPERF"^^xsd:string ;
  mms:dataElementType "xsd:string"^^xsd:anySimpleType ;
  mms:dataElementValueDomain sdtmct:C66742 ;
  mms:ordinal "1"^^xsd:positiveInteger ;
  cdiscs:completionInstructions "If physical examination was performed as planned then select \"Yes\", otherwise, select \"No\"."^^xsd:string ;
  cdiscs:controlledTermsOrFormat "NY"^^xsd:string ;
  cdiscs:prompt "Exam performed"^^xsd:string ;
  cdiscs:questionText "Was the physical examination performed?"^^xsd:string ;
.
<http://rdf.cdisc.org/std/cdash-1-1#DataElement.PE.PERES>
  rdf:type mms:DataElement ;
  mms:context <http://rdf.cdisc.org/std/cdash-1-1#Domain.PE> ;
  mms:dataElementDescription "Overall assessment of examined body system."^^xsd:string ;
  mms:dataElementLabel "Result"^^xsd:string ;
  mms:dataElementName "PERES"^^xsd:string ;
  mms:dataElementType "xsd:string"^^xsd:anySimpleType ;
  mms:ordinal "6"^^xsd:positiveInteger ;
  cdiscs:completionInstructions "For each body system listed, record the result of the examination (Normal or Abnormal).  If the examination is not performed or not required, select Not Done."^^xsd:string ;
  cdiscs:prompt "Result"^^xsd:string ;
  cdiscs:questionText "Were the results normal, abnormal or not done?"^^xsd:string ;
.
<http://rdf.cdisc.org/std/cdash-1-1#DataElement.PE.PESPID>
  rdf:type mms:DataElement ;
  mms:context <http://rdf.cdisc.org/std/cdash-1-1#Domain.PE> ;
  mms:dataElementDescription "A sponsor-defined identifier (e.g., pre-printed numbers on the CRF.)"^^xsd:string ;
  mms:dataElementLabel "<line number> or <PE number>"^^xsd:string ;
  mms:dataElementName "PESPID"^^xsd:string ;
  mms:dataElementType "xsd:string"^^xsd:anySimpleType ;
  mms:ordinal "4"^^xsd:positiveInteger ;
  cdiscs:completionInstructions "Not applicable."^^xsd:string ;
  cdiscs:prompt "<line number> or <PE number>"^^xsd:string ;
  cdiscs:questionText "What is the sponsor- defined ID?"^^xsd:string ;
.
<http://rdf.cdisc.org/std/cdash-1-1#DataElement.PE.PETEST>
  rdf:type mms:DataElement ;
  mms:context <http://rdf.cdisc.org/std/cdash-1-1#Domain.PE> ;
  mms:dataElementDescription "Name of the body system."^^xsd:string ;
  mms:dataElementLabel "<Body System>"^^xsd:string ;
  mms:dataElementName "PETEST"^^xsd:string ;
  mms:dataElementType "xsd:string"^^xsd:anySimpleType ;
  mms:ordinal "5"^^xsd:positiveInteger ;
  cdiscs:completionInstructions "Per protocol, perform physical examinations of specified body systems."^^xsd:string ;
  cdiscs:prompt "<Body System>"^^xsd:string ;
  cdiscs:questionText "What was the body system examined?"^^xsd:string ;
.
<http://rdf.cdisc.org/std/cdash-1-1#DataElement.PE.PETIM>
  rdf:type mms:DataElement ;
  mms:context <http://rdf.cdisc.org/std/cdash-1-1#Domain.PE> ;
  mms:dataElementDescription "Time of examination."^^xsd:string ;
  mms:dataElementLabel "Exam Time"^^xsd:string ;
  mms:dataElementName "PETIM"^^xsd:string ;
  mms:dataElementType "xsd:time"^^xsd:anySimpleType ;
  mms:ordinal "3"^^xsd:positiveInteger ;
  cdiscs:completionInstructions "Record the time of examination (as complete as possible)."^^xsd:string ;
  cdiscs:prompt "Exam Time"^^xsd:string ;
  cdiscs:questionText "What was the physical examination time?"^^xsd:string ;
.
<http://rdf.cdisc.org/std/cdash-1-1#DataElement.SC.SCORRES>
  rdf:type mms:DataElement ;
  mms:context <http://rdf.cdisc.org/std/cdash-1-1#Domain.SC> ;
  mms:dataElementDescription "Answer/result of the subject characteristic question as originally received or collected."^^xsd:string ;
  mms:dataElementLabel "<subject characteristic>"^^xsd:string ;
  mms:dataElementName "SCORRES"^^xsd:string ;
  mms:dataElementType "xsd:string"^^xsd:anySimpleType ;
  mms:ordinal "3"^^xsd:positiveInteger ;
  cdiscs:completionInstructions "Record the answer to the question."^^xsd:string ;
  cdiscs:prompt "<subject characteristic>"^^xsd:string ;
  cdiscs:questionText "What is the subject's <characteristic> ?"^^xsd:string ;
.
<http://rdf.cdisc.org/std/cdash-1-1#DataElement.SC.SCPERF>
  rdf:type mms:DataElement ;
  mms:context <http://rdf.cdisc.org/std/cdash-1-1#Domain.SC> ;
  mms:dataElementDescription "General prompt question to aid in monitoring and data cleaning."^^xsd:string ;
  mms:dataElementLabel "Any Subject Characteristics?"^^xsd:string ;
  mms:dataElementName "SCPERF"^^xsd:string ;
  mms:dataElementType "xsd:string"^^xsd:anySimpleType ;
  mms:dataElementValueDomain sdtmct:C66742 ;
  mms:ordinal "1"^^xsd:positiveInteger ;
  cdiscs:completionInstructions "Indicate if subject characteristics information was collected. If \"Yes\", include the appropriate details."^^xsd:string ;
  cdiscs:controlledTermsOrFormat "NY"^^xsd:string ;
  cdiscs:prompt "Any Subject Characteristics?"^^xsd:string ;
  cdiscs:questionText "Have relevant subject characteristics been collected?"^^xsd:string ;
.
<http://rdf.cdisc.org/std/cdash-1-1#DataElement.SC.SCTEST>
  rdf:type mms:DataElement ;
  mms:context <http://rdf.cdisc.org/std/cdash-1-1#Domain.SC> ;
  mms:dataElementDescription "The name of the subject characteristic being queried."^^xsd:string ;
  mms:dataElementLabel "<subject characteristic>"^^xsd:string ;
  mms:dataElementName "SCTEST"^^xsd:string ;
  mms:dataElementType "xsd:string"^^xsd:anySimpleType ;
  mms:ordinal "2"^^xsd:positiveInteger ;
  cdiscs:completionInstructions "Not applicable."^^xsd:string ;
  cdiscs:controlledTermsOrFormat "SCCD"^^xsd:string ;
  cdiscs:prompt "<subject characteristic>"^^xsd:string ;
  cdiscs:questionText "What is the subject's <characteristic> ? or What was the subject's <characteristic> ?"^^xsd:string ;
.
<http://rdf.cdisc.org/std/cdash-1-1#DataElement.SU.SUCAT>
  rdf:type mms:DataElement ;
  mms:context <http://rdf.cdisc.org/std/cdash-1-1#Domain.SU> ;
  mms:dataElementDescription "Used to define a category of related records (e.g., TOBACCO, ALCOHOL, CAFFEINE)."^^xsd:string ;
  mms:dataElementLabel "<Substance Category>"^^xsd:string ;
  mms:dataElementName "SUCAT"^^xsd:string ;
  mms:dataElementType "xsd:string"^^xsd:anySimpleType ;
  mms:ordinal "3"^^xsd:positiveInteger ;
  cdiscs:completionInstructions "Not applicable."^^xsd:string ;
  cdiscs:prompt "<Substance Category>"^^xsd:string ;
  cdiscs:questionText "What was the category of substance used?"^^xsd:string ;
.
<http://rdf.cdisc.org/std/cdash-1-1#DataElement.SU.SUCDUR>
  rdf:type mms:DataElement ;
  mms:context <http://rdf.cdisc.org/std/cdash-1-1#Domain.SU> ;
  mms:dataElementDescription "The duration of the substance use."^^xsd:string ;
  mms:dataElementLabel "Duration"^^xsd:string ;
  mms:dataElementName "SUCDUR"^^xsd:string ;
  mms:dataElementType "xsd:decimal"^^xsd:anySimpleType ;
  mms:ordinal "9"^^xsd:positiveInteger ;
  cdiscs:completionInstructions "Provide the duration of the Substance Abuse (e.g., Record how long the subject has smoked)."^^xsd:string ;
  cdiscs:prompt "Duration"^^xsd:string ;
  cdiscs:questionText "What was the duration of substance use?"^^xsd:string ;
.
<http://rdf.cdisc.org/std/cdash-1-1#DataElement.SU.SUCDURU>
  rdf:type mms:DataElement ;
  mms:context <http://rdf.cdisc.org/std/cdash-1-1#Domain.SU> ;
  mms:dataElementDescription "Units for SUCDUR (e.g., WEEKS, MONTHS, YEARS)."^^xsd:string ;
  mms:dataElementLabel "<Duration Unit>"^^xsd:string ;
  mms:dataElementName "SUCDURU"^^xsd:string ;
  mms:dataElementType "xsd:string"^^xsd:anySimpleType ;
  mms:ordinal "10"^^xsd:positiveInteger ;
  cdiscs:completionInstructions "Not applicable."^^xsd:string ;
  cdiscs:prompt "<Duration Unit>"^^xsd:string ;
  cdiscs:questionText "What was the unit of duration of substance use?"^^xsd:string ;
.
<http://rdf.cdisc.org/std/cdash-1-1#DataElement.SU.SUDOSFRQ>
  rdf:type mms:DataElement ;
  mms:context <http://rdf.cdisc.org/std/cdash-1-1#Domain.SU> ;
  mms:dataElementDescription "Usually expressed as the number of uses consumed per a specific interval (e.g., PER DAY, PER WEEK, OCCASIONAL)."^^xsd:string ;
  mms:dataElementLabel "Frequency"^^xsd:string ;
  mms:dataElementName "SUDOSFRQ"^^xsd:string ;
  mms:dataElementType "xsd:string"^^xsd:anySimpleType ;
  mms:ordinal "6"^^xsd:positiveInteger ;
  cdiscs:completionInstructions "Not applicable."^^xsd:string ;
  cdiscs:prompt "Frequency"^^xsd:string ;
  cdiscs:questionText "What was the frequency of substance use?"^^xsd:string ;
.
<http://rdf.cdisc.org/std/cdash-1-1#DataElement.SU.SUDOSU>
  rdf:type mms:DataElement ;
  mms:context <http://rdf.cdisc.org/std/cdash-1-1#Domain.SU> ;
  mms:dataElementDescription "Units for SUDOSTXT (e.g., PACKS, OUNCES).  See Section 2.2."^^xsd:string ;
  mms:dataElementLabel "Unit"^^xsd:string ;
  mms:dataElementName "SUDOSU"^^xsd:string ;
  mms:dataElementType "xsd:string"^^xsd:anySimpleType ;
  mms:dataElementValueDomain sdtmct:C71620 ;
  mms:ordinal "5"^^xsd:positiveInteger ;
  cdiscs:completionInstructions "Not applicable."^^xsd:string ;
  cdiscs:controlledTermsOrFormat "UNIT"^^xsd:string ;
  cdiscs:prompt "Unit"^^xsd:string ;
  cdiscs:questionText "What was the unit of the substance used?"^^xsd:string ;
.
<http://rdf.cdisc.org/std/cdash-1-1#DataElement.SU.SUDSTXT>
  rdf:type mms:DataElement ;
  mms:context <http://rdf.cdisc.org/std/cdash-1-1#Domain.SU> ;
  mms:dataElementDescription "The amount of substance used [e.g., 1-2 (packs), 8 (ounces)]."^^xsd:string ;
  mms:dataElementLabel "Amount"^^xsd:string ;
  mms:dataElementName "SUDSTXT"^^xsd:string ;
  mms:dataElementType "xsd:string"^^xsd:anySimpleType ;
  mms:ordinal "4"^^xsd:positiveInteger ;
  cdiscs:completionInstructions "Check the appropriate box to indicate the amount of tobacco/alcohol/caffeine the subject consumes on a regular basis."^^xsd:string ;
  cdiscs:prompt "Amount"^^xsd:string ;
  cdiscs:questionText "What was the amount of substance used?"^^xsd:string ;
.
<http://rdf.cdisc.org/std/cdash-1-1#DataElement.SU.SUENDAT>
  rdf:type mms:DataElement ;
  mms:context <http://rdf.cdisc.org/std/cdash-1-1#Domain.SU> ;
  mms:dataElementDescription "Date substance use ended."^^xsd:string ;
  mms:dataElementLabel "End date"^^xsd:string ;
  mms:dataElementName "SUENDAT"^^xsd:string ;
  mms:dataElementType "xsd:date"^^xsd:anySimpleType ;
  mms:ordinal "8"^^xsd:positiveInteger ;
  cdiscs:completionInstructions "Record the end date using this format (DD-MON- YYYY)."^^xsd:string ;
  cdiscs:prompt "End date"^^xsd:string ;
  cdiscs:questionText "What was the end date of substance use?"^^xsd:string ;
.
<http://rdf.cdisc.org/std/cdash-1-1#DataElement.SU.SUNCF>
  rdf:type mms:DataElement ;
  mms:context <http://rdf.cdisc.org/std/cdash-1-1#Domain.SU> ;
  mms:dataElementDescription "Substance Use Occurrence.  (See Section 2.2)"^^xsd:string ;
  mms:dataElementLabel "Usage"^^xsd:string ;
  mms:dataElementName "SUNCF"^^xsd:string ;
  mms:dataElementType "xsd:string"^^xsd:anySimpleType ;
  mms:dataElementValueDomain cdashct:C83004 ;
  mms:ordinal "2"^^xsd:positiveInteger ;
  cdiscs:completionInstructions "Check the appropriate box to indicate if the subject has ever used/consumed tobacco/alcohol/caffeine, currently consumes tobacco/alcohol/caffeine, or formerly used/consumed tobacco/alcohol/caffeine."^^xsd:string ;
  cdiscs:controlledTermsOrFormat "SUNCF"^^xsd:string ;
  cdiscs:prompt "Usage"^^xsd:string ;
  cdiscs:questionText "Has the subject ever used the substance?"^^xsd:string ;
.
<http://rdf.cdisc.org/std/cdash-1-1#DataElement.SU.SUSTDAT>
  rdf:type mms:DataElement ;
  mms:context <http://rdf.cdisc.org/std/cdash-1-1#Domain.SU> ;
  mms:dataElementDescription "Date substance use started."^^xsd:string ;
  mms:dataElementLabel "Start Date"^^xsd:string ;
  mms:dataElementName "SUSTDAT"^^xsd:string ;
  mms:dataElementType "xsd:date"^^xsd:anySimpleType ;
  mms:ordinal "7"^^xsd:positiveInteger ;
  cdiscs:completionInstructions "Record the start date using this format (DD-MON- YYYY)."^^xsd:string ;
  cdiscs:prompt "Start Date"^^xsd:string ;
  cdiscs:questionText "What was the start date of substance use?"^^xsd:string ;
.
<http://rdf.cdisc.org/std/cdash-1-1#DataElement.SU.SUTRT>
  rdf:type mms:DataElement ;
  mms:context <http://rdf.cdisc.org/std/cdash-1-1#Domain.SU> ;
  mms:dataElementDescription "The type of substance (e.g., TOBACCO, ALCOHOL, CAFFEINE or CIGARETTES, CIGARS, COFFEE)."^^xsd:string ;
  mms:dataElementLabel "<Type of Substance>"^^xsd:string ;
  mms:dataElementName "SUTRT"^^xsd:string ;
  mms:dataElementType "xsd:string"^^xsd:anySimpleType ;
  mms:ordinal "1"^^xsd:positiveInteger ;
  cdiscs:completionInstructions "Not applicable."^^xsd:string ;
  cdiscs:prompt "<Type of Substance>"^^xsd:string ;
  cdiscs:questionText "What was the type of substance used?"^^xsd:string ;
.
<http://rdf.cdisc.org/std/cdash-1-1#DataElement.Timing.VISDAT>
  rdf:type mms:DataElement ;
  mms:context <http://rdf.cdisc.org/std/cdash-1-1#Domain.Timing> ;
  mms:dataElementDescription "Date the clinical encounter occurred (or started)."^^xsd:string ;
  mms:dataElementLabel "Visit Date"^^xsd:string ;
  mms:dataElementName "VISDAT"^^xsd:string ;
  mms:dataElementType "xsd:date"^^xsd:anySimpleType ;
  mms:ordinal "3"^^xsd:positiveInteger ;
  cdiscs:completionInstructions "Record the date the visit took place or started in this format (DD-MON-YYYY)."^^xsd:string ;
  cdiscs:prompt "Visit Date"^^xsd:string ;
  cdiscs:questionText "What is the visit date?"^^xsd:string ;
.
<http://rdf.cdisc.org/std/cdash-1-1#DataElement.Timing.VISENDAT>
  rdf:type mms:DataElement ;
  mms:context <http://rdf.cdisc.org/std/cdash-1-1#Domain.Timing> ;
  mms:dataElementDescription "Date the clinical encounter ended."^^xsd:string ;
  mms:dataElementLabel "Visit End Date"^^xsd:string ;
  mms:dataElementName "VISENDAT"^^xsd:string ;
  mms:dataElementType "xsd:date"^^xsd:anySimpleType ;
  mms:ordinal "4"^^xsd:positiveInteger ;
  cdiscs:completionInstructions "Record the date the visit ended in this format (DD-MON-YYYY)."^^xsd:string ;
  cdiscs:prompt "Visit End Date"^^xsd:string ;
  cdiscs:questionText "What is the visit end date?"^^xsd:string ;
.
<http://rdf.cdisc.org/std/cdash-1-1#DataElement.Timing.VISENTIM>
  rdf:type mms:DataElement ;
  mms:context <http://rdf.cdisc.org/std/cdash-1-1#Domain.Timing> ;
  mms:dataElementDescription "Time the clinical encounter ended."^^xsd:string ;
  mms:dataElementLabel "Visit End Time"^^xsd:string ;
  mms:dataElementName "VISENTIM"^^xsd:string ;
  mms:dataElementType "xsd:time"^^xsd:anySimpleType ;
  mms:ordinal "6"^^xsd:positiveInteger ;
  cdiscs:completionInstructions "Record the time the visit ended."^^xsd:string ;
  cdiscs:prompt "Visit End Time"^^xsd:string ;
  cdiscs:questionText "What is the visit end time?"^^xsd:string ;
.
<http://rdf.cdisc.org/std/cdash-1-1#DataElement.Timing.VISIT>
  rdf:type mms:DataElement ;
  mms:context <http://rdf.cdisc.org/std/cdash-1-1#Domain.Timing> ;
  mms:dataElementDescription "A clinical encounter that encompasses planned and unplanned trial inventions, procedures, and assessments that may be performed on a subject."^^xsd:string ;
  mms:dataElementLabel "Visit"^^xsd:string ;
  mms:dataElementName "VISIT"^^xsd:string ;
  mms:dataElementType "xsd:string"^^xsd:anySimpleType ;
  mms:ordinal "1"^^xsd:positiveInteger ;
  cdiscs:completionInstructions "When applicable (e.g., on paper CRFs), record the visit name."^^xsd:string ;
  cdiscs:prompt "Visit"^^xsd:string ;
  cdiscs:questionText "What is the visit name?"^^xsd:string ;
.
<http://rdf.cdisc.org/std/cdash-1-1#DataElement.Timing.VISITNUM>
  rdf:type mms:DataElement ;
  mms:context <http://rdf.cdisc.org/std/cdash-1-1#Domain.Timing> ;
  mms:dataElementDescription "A number assigned to a clinical encounter."^^xsd:string ;
  mms:dataElementLabel "Visit Number"^^xsd:string ;
  mms:dataElementName "VISITNUM"^^xsd:string ;
  mms:dataElementType "xsd:decimal"^^xsd:anySimpleType ;
  mms:ordinal "2"^^xsd:positiveInteger ;
  cdiscs:completionInstructions "When applicable (e.g., on paper CRFs), record the visit number."^^xsd:string ;
  cdiscs:prompt "Visit Number"^^xsd:string ;
  cdiscs:questionText "What is the visit number?"^^xsd:string ;
.
<http://rdf.cdisc.org/std/cdash-1-1#DataElement.Timing.VISTIM>
  rdf:type mms:DataElement ;
  mms:context <http://rdf.cdisc.org/std/cdash-1-1#Domain.Timing> ;
  mms:dataElementDescription "Time the clinical encounter took place (or started)."^^xsd:string ;
  mms:dataElementLabel "Visit Time"^^xsd:string ;
  mms:dataElementName "VISTIM"^^xsd:string ;
  mms:dataElementType "xsd:time"^^xsd:anySimpleType ;
  mms:ordinal "5"^^xsd:positiveInteger ;
  cdiscs:completionInstructions "Record the time the visit took place (or started)."^^xsd:string ;
  cdiscs:prompt "Visit Time"^^xsd:string ;
  cdiscs:questionText "What is the visit time?"^^xsd:string ;
.
<http://rdf.cdisc.org/std/cdash-1-1#DataElement.VS.VSCLSIG>
  rdf:type mms:DataElement ;
  mms:context <http://rdf.cdisc.org/std/cdash-1-1#Domain.VS> ;
  mms:dataElementDescription "Whether vital sign result was clinically significant."^^xsd:string ;
  mms:dataElementLabel "Clinically Significant"^^xsd:string ;
  mms:dataElementName "VSCLSIG"^^xsd:string ;
  mms:dataElementType "xsd:string"^^xsd:anySimpleType ;
  mms:ordinal "10"^^xsd:positiveInteger ;
  cdiscs:completionInstructions "Record or select location on body where measurement was performed, if not pre- printed on CRF."^^xsd:string ;
  cdiscs:prompt "Clinically Significant"^^xsd:string ;
  cdiscs:questionText "Was the result clinically significant?"^^xsd:string ;
.
<http://rdf.cdisc.org/std/cdash-1-1#DataElement.VS.VSDAT>
  rdf:type mms:DataElement ;
  mms:context <http://rdf.cdisc.org/std/cdash-1-1#Domain.VS> ;
  mms:dataElementDescription "Date of measurements."^^xsd:string ;
  mms:dataElementLabel "Date"^^xsd:string ;
  mms:dataElementName "VSDAT"^^xsd:string ;
  mms:dataElementType "xsd:date"^^xsd:anySimpleType ;
  mms:ordinal "2"^^xsd:positiveInteger ;
  cdiscs:completionInstructions "Record date of measurements using this format (DD-MON-YYYY)."^^xsd:string ;
  cdiscs:prompt "Date"^^xsd:string ;
  cdiscs:questionText "On what date were the measurements performed?"^^xsd:string ;
.
<http://rdf.cdisc.org/std/cdash-1-1#DataElement.VS.VSLOC>
  rdf:type mms:DataElement ;
  mms:context <http://rdf.cdisc.org/std/cdash-1-1#Domain.VS> ;
  mms:dataElementDescription "Location relevant to the collection of Vital Signs measurement.  Example: LEFT ARM for blood pressure.  (See Section 2.2)"^^xsd:string ;
  mms:dataElementLabel "Location"^^xsd:string ;
  mms:dataElementName "VSLOC"^^xsd:string ;
  mms:dataElementType "xsd:string"^^xsd:anySimpleType ;
  mms:dataElementValueDomain sdtmct:C74456 ;
  mms:ordinal "11"^^xsd:positiveInteger ;
  cdiscs:completionInstructions "Record the position of subject at time of test (e.g. SITTING)."^^xsd:string ;
  cdiscs:controlledTermsOrFormat "LOC"^^xsd:string ;
  cdiscs:prompt "Location"^^xsd:string ;
  cdiscs:questionText "At what location was the measurement taken?"^^xsd:string ;
.
<http://rdf.cdisc.org/std/cdash-1-1#DataElement.VS.VSORRES>
  rdf:type mms:DataElement ;
  mms:context <http://rdf.cdisc.org/std/cdash-1-1#Domain.VS> ;
  mms:dataElementDescription "Result of the vital signs measurement as originally received or collected."^^xsd:string ;
  mms:dataElementLabel "Result"^^xsd:string ;
  mms:dataElementName "VSORRES"^^xsd:string ;
  mms:dataElementType "xsd:string"^^xsd:anySimpleType ;
  mms:ordinal "8"^^xsd:positiveInteger ;
  cdiscs:completionInstructions "Record or select the unit of measure associated with the test, if not pre-printed on the CRF."^^xsd:string ;
  cdiscs:prompt "Result"^^xsd:string ;
  cdiscs:questionText "What was the result of the measurement?"^^xsd:string ;
.
<http://rdf.cdisc.org/std/cdash-1-1#DataElement.VS.VSORRESU>
  rdf:type mms:DataElement ;
  mms:context <http://rdf.cdisc.org/std/cdash-1-1#Domain.VS> ;
  mms:dataElementDescription "Original units in which the data were collected."^^xsd:string ;
  mms:dataElementLabel "<Units>"^^xsd:string ;
  mms:dataElementName "VSORRESU"^^xsd:string ;
  mms:dataElementType "xsd:string"^^xsd:anySimpleType ;
  mms:dataElementValueDomain sdtmct:C66770 ;
  mms:ordinal "9"^^xsd:positiveInteger ;
  cdiscs:completionInstructions "Record whether vital sign result was clinically significant."^^xsd:string ;
  cdiscs:controlledTermsOrFormat "VSRESU"^^xsd:string ;
  cdiscs:prompt "<Units>"^^xsd:string ;
  cdiscs:questionText "What was the unit of the measurement?"^^xsd:string ;
.
<http://rdf.cdisc.org/std/cdash-1-1#DataElement.VS.VSPERF>
  rdf:type mms:DataElement ;
  mms:context <http://rdf.cdisc.org/std/cdash-1-1#Domain.VS> ;
  mms:dataElementDescription "General prompt question regarding whether or not any VS were collected during the study.  This provides verification that all other fields on the CRF were deliberately left blank."^^xsd:string ;
  mms:dataElementLabel "Vital signs collected?"^^xsd:string ;
  mms:dataElementName "VSPERF"^^xsd:string ;
  mms:dataElementType "xsd:string"^^xsd:anySimpleType ;
  mms:dataElementValueDomain sdtmct:C66742 ;
  mms:ordinal "1"^^xsd:positiveInteger ;
  cdiscs:completionInstructions "Indicate if the vital signs were collected.  If yes, include the appropriate details where indicated on the CRF."^^xsd:string ;
  cdiscs:controlledTermsOrFormat "NY"^^xsd:string ;
  cdiscs:prompt "Vital signs collected?"^^xsd:string ;
  cdiscs:questionText "Were vital signs collected?"^^xsd:string ;
.
<http://rdf.cdisc.org/std/cdash-1-1#DataElement.VS.VSPOS>
  rdf:type mms:DataElement ;
  mms:context <http://rdf.cdisc.org/std/cdash-1-1#Domain.VS> ;
  mms:dataElementDescription "Position of the subject during a measurement or examination.  (See Section 2.2)"^^xsd:string ;
  mms:dataElementLabel "Position"^^xsd:string ;
  mms:dataElementName "VSPOS"^^xsd:string ;
  mms:dataElementType "xsd:string"^^xsd:anySimpleType ;
  mms:dataElementValueDomain cdashct:C78431 ;
  mms:ordinal "12"^^xsd:positiveInteger ;
  cdiscs:controlledTermsOrFormat "POSITION"^^xsd:string ;
  cdiscs:prompt "Position"^^xsd:string ;
  cdiscs:questionText "In what position was the subject during the measurement?"^^xsd:string ;
.
<http://rdf.cdisc.org/std/cdash-1-1#DataElement.VS.VSSPID>
  rdf:type mms:DataElement ;
  mms:context <http://rdf.cdisc.org/std/cdash-1-1#Domain.VS> ;
  mms:dataElementDescription "A sponsor-defined identifier that can be used for pre-printed numbers on the CRF."^^xsd:string ;
  mms:dataElementLabel "<line number> or <VS number>"^^xsd:string ;
  mms:dataElementName "VSSPID"^^xsd:string ;
  mms:dataElementType "xsd:string"^^xsd:anySimpleType ;
  mms:ordinal "4"^^xsd:positiveInteger ;
  cdiscs:completionInstructions "Not applicable."^^xsd:string ;
  cdiscs:prompt "<line number> or <VS number>"^^xsd:string ;
  cdiscs:questionText "What is the Sponsor-Defined Identifier?"^^xsd:string ;
.
<http://rdf.cdisc.org/std/cdash-1-1#DataElement.VS.VSTEST>
  rdf:type mms:DataElement ;
  mms:context <http://rdf.cdisc.org/std/cdash-1-1#Domain.VS> ;
  mms:dataElementDescription "Verbatim name of the test or examination used to obtain the measurement or finding."^^xsd:string ;
  mms:dataElementLabel "<Test>"^^xsd:string ;
  mms:dataElementName "VSTEST"^^xsd:string ;
  mms:dataElementType "xsd:string"^^xsd:anySimpleType ;
  mms:dataElementValueDomain sdtmct:C67153 ;
  mms:ordinal "6"^^xsd:positiveInteger ;
  cdiscs:completionInstructions "Record the name of the vital sign test if not pre-printed on the CRF."^^xsd:string ;
  cdiscs:controlledTermsOrFormat "VSTEST"^^xsd:string ;
  cdiscs:prompt "<Test>"^^xsd:string ;
  cdiscs:questionText "What is the vital sign test name?"^^xsd:string ;
.
<http://rdf.cdisc.org/std/cdash-1-1#DataElement.VS.VSTESTCD>
  rdf:type mms:DataElement ;
  mms:context <http://rdf.cdisc.org/std/cdash-1-1#Domain.VS> ;
  mms:dataElementDescription "The name given to the test that analyzes a particular set of vital signs including temperature, respiratory rate, heart beat (pulse), and blood pressure. (NCI)"^^xsd:string ;
  mms:dataElementLabel "<Test Coded>"^^xsd:string ;
  mms:dataElementName "VSTESTCD"^^xsd:string ;
  mms:dataElementType "xsd:string"^^xsd:anySimpleType ;
  mms:dataElementValueDomain sdtmct:C66741 ;
  mms:ordinal "7"^^xsd:positiveInteger ;
  cdiscs:completionInstructions "Record vital sign results."^^xsd:string ;
  cdiscs:controlledTermsOrFormat "VSTESTCD"^^xsd:string ;
  cdiscs:prompt "<Test Code>"^^xsd:string ;
.
<http://rdf.cdisc.org/std/cdash-1-1#DataElement.VS.VSTIM>
  rdf:type mms:DataElement ;
  mms:context <http://rdf.cdisc.org/std/cdash-1-1#Domain.VS> ;
  mms:dataElementDescription "Time of measurements."^^xsd:string ;
  mms:dataElementLabel "Time"^^xsd:string ;
  mms:dataElementName "VSTIM"^^xsd:string ;
  mms:dataElementType "xsd:time"^^xsd:anySimpleType ;
  mms:ordinal "3"^^xsd:positiveInteger ;
  cdiscs:completionInstructions "Record time of measurement (as complete as possible)."^^xsd:string ;
  cdiscs:prompt "Time"^^xsd:string ;
  cdiscs:questionText "At what time were the measurements performed?"^^xsd:string ;
.
<http://rdf.cdisc.org/std/cdash-1-1#DataElement.VS.VSTPT>
  rdf:type mms:DataElement ;
  mms:context <http://rdf.cdisc.org/std/cdash-1-1#Domain.VS> ;
  mms:dataElementDescription "Text description of time when measurement should be taken."^^xsd:string ;
  mms:dataElementLabel "<Planned Time Point>"^^xsd:string ;
  mms:dataElementName "VSTPT"^^xsd:string ;
  mms:dataElementType "xsd:string"^^xsd:anySimpleType ;
  mms:ordinal "5"^^xsd:positiveInteger ;
  cdiscs:completionInstructions "Not applicable."^^xsd:string ;
  cdiscs:prompt "<Planned Time Point>"^^xsd:string ;
  cdiscs:questionText "What is the planned time point for this measurement?"^^xsd:string ;
.
<http://rdf.cdisc.org/std/cdash-1-1#Domain.AE>
  rdf:type mms:Domain ;
  mms:context cdash-1-1:EventsObservationClass ;
  mms:contextLabel "Adverse Event"^^xsd:string ;
  mms:contextName "AE"^^xsd:string ;
  mms:ordinal "3"^^xsd:positiveInteger ;
.
<http://rdf.cdisc.org/std/cdash-1-1#Domain.CM>
  rdf:type mms:Domain ;
  mms:context cdash-1-1:InterventionsObservationClass ;
  mms:contextLabel "Prior and Concomitant Medications"^^xsd:string ;
  mms:contextName "CM"^^xsd:string ;
  mms:ordinal "5"^^xsd:positiveInteger ;
.
<http://rdf.cdisc.org/std/cdash-1-1#Domain.CO>
  rdf:type mms:Domain ;
  mms:context cdash-1-1:SpecialPurposeDomain ;
  mms:contextLabel "Comments"^^xsd:string ;
  mms:contextName "CO"^^xsd:string ;
  mms:ordinal "4"^^xsd:positiveInteger ;
.
<http://rdf.cdisc.org/std/cdash-1-1#Domain.Common>
  rdf:type mms:Domain ;
  mms:context cdash-1-1:CommonVariableDataset ;
  mms:contextLabel "Common Identifier Variables"^^xsd:string ;
  mms:contextName "Common"^^xsd:string ;
  mms:ordinal "1"^^xsd:positiveInteger ;
.
<http://rdf.cdisc.org/std/cdash-1-1#Domain.DA>
  rdf:type mms:Domain ;
  mms:context cdash-1-1:FindingsObservationClass ;
  mms:contextLabel "Drug Accountability"^^xsd:string ;
  mms:contextName "DA"^^xsd:string ;
  mms:ordinal "8"^^xsd:positiveInteger ;
.
<http://rdf.cdisc.org/std/cdash-1-1#Domain.DM>
  rdf:type mms:Domain ;
  mms:context cdash-1-1:SpecialPurposeDomain ;
  mms:contextLabel "Demographics"^^xsd:string ;
  mms:contextName "DM"^^xsd:string ;
  mms:ordinal "6"^^xsd:positiveInteger ;
.
<http://rdf.cdisc.org/std/cdash-1-1#Domain.DS>
  rdf:type mms:Domain ;
  mms:context cdash-1-1:EventsObservationClass ;
  mms:contextLabel "Disposition"^^xsd:string ;
  mms:contextName "DS"^^xsd:string ;
  mms:ordinal "7"^^xsd:positiveInteger ;
.
<http://rdf.cdisc.org/std/cdash-1-1#Domain.DV>
  rdf:type mms:Domain ;
  mms:context cdash-1-1:EventsObservationClass ;
  mms:contextLabel "Protocol Violations"^^xsd:string ;
  mms:contextName "DV"^^xsd:string ;
  mms:ordinal "15"^^xsd:positiveInteger ;
.
<http://rdf.cdisc.org/std/cdash-1-1#Domain.EG>
  rdf:type mms:Domain ;
  mms:context cdash-1-1:FindingsObservationClass ;
  mms:contextLabel "ECG Test Results"^^xsd:string ;
  mms:contextName "EG"^^xsd:string ;
  mms:ordinal "9"^^xsd:positiveInteger ;
.
<http://rdf.cdisc.org/std/cdash-1-1#Domain.EX>
  rdf:type mms:Domain ;
  mms:context cdash-1-1:InterventionsObservationClass ;
  mms:contextLabel "Exposure"^^xsd:string ;
  mms:contextName "EX"^^xsd:string ;
  mms:ordinal "10"^^xsd:positiveInteger ;
.
<http://rdf.cdisc.org/std/cdash-1-1#Domain.IE>
  rdf:type mms:Domain ;
  mms:context cdash-1-1:FindingsObservationClass ;
  mms:contextLabel "Inclusion/Exclusion Criteria Not Met"^^xsd:string ;
  mms:contextName "IE"^^xsd:string ;
  mms:ordinal "11"^^xsd:positiveInteger ;
.
<http://rdf.cdisc.org/std/cdash-1-1#Domain.LB>
  rdf:type mms:Domain ;
  mms:context cdash-1-1:FindingsObservationClass ;
  mms:contextLabel "Laboratory Test Results"^^xsd:string ;
  mms:contextName "LB"^^xsd:string ;
  mms:ordinal "12"^^xsd:positiveInteger ;
.
<http://rdf.cdisc.org/std/cdash-1-1#Domain.MH>
  rdf:type mms:Domain ;
  mms:context cdash-1-1:EventsObservationClass ;
  mms:contextLabel "Medical History"^^xsd:string ;
  mms:contextName "MH"^^xsd:string ;
  mms:ordinal "13"^^xsd:positiveInteger ;
.
<http://rdf.cdisc.org/std/cdash-1-1#Domain.PE>
  rdf:type mms:Domain ;
  mms:context cdash-1-1:FindingsObservationClass ;
  mms:contextLabel "Physical Examination"^^xsd:string ;
  mms:contextName "PE"^^xsd:string ;
  mms:ordinal "14"^^xsd:positiveInteger ;
.
<http://rdf.cdisc.org/std/cdash-1-1#Domain.SC>
  rdf:type mms:Domain ;
  mms:context cdash-1-1:FindingsObservationClass ;
  mms:contextLabel "Subject Characteristics"^^xsd:string ;
  mms:contextName "SC"^^xsd:string ;
  mms:ordinal "16"^^xsd:positiveInteger ;
.
<http://rdf.cdisc.org/std/cdash-1-1#Domain.SU>
  rdf:type mms:Domain ;
  mms:context cdash-1-1:InterventionsObservationClass ;
  mms:contextLabel "Substance Usage"^^xsd:string ;
  mms:contextName "SU"^^xsd:string ;
  mms:ordinal "17"^^xsd:positiveInteger ;
.
<http://rdf.cdisc.org/std/cdash-1-1#Domain.Timing>
  rdf:type mms:Domain ;
  mms:context cdash-1-1:CommonTimingVariableDataset ;
  mms:contextLabel "Common Timing Variables"^^xsd:string ;
  mms:contextName "Timing"^^xsd:string ;
  mms:ordinal "2"^^xsd:positiveInteger ;
.
<http://rdf.cdisc.org/std/cdash-1-1#Domain.VS>
  rdf:type mms:Domain ;
  mms:context cdash-1-1:FindingsObservationClass ;
  mms:contextLabel "Vital Signs"^^xsd:string ;
  mms:contextName "VS"^^xsd:string ;
  mms:ordinal "18"^^xsd:positiveInteger ;
.
cdash-1-1:EventsObservationClass
  rdf:type mms:DomainContext ;
  mms:context <http://rdf.cdisc.org/std/cdash-1-1#Model.CDASH-1-1> ;
  mms:contextDescription "The Events class captures planned protocol milestones such as randomization and study completion, and occurrences, conditions, or incidents independent of planned study evaluations occurring during the trial (e.g., adverse events) or prior to the trial (e.g., medical history)."^^xsd:string ;
  mms:contextLabel "Events Observation Class"^^xsd:string ;
  mms:contextName "Events"^^xsd:string ;
  mms:ordinal "3"^^xsd:positiveInteger ;
.
<http://rdf.cdisc.org/std/cdash-1-1#Field.AE.AEACN>
  rdf:type mms:DataCollectionField ;
  mms:context <http://rdf.cdisc.org/std/cdash-1-1#Form.AE> ;
  mms:dataElement <http://rdf.cdisc.org/std/cdash-1-1#DataElement.AE.AEACN> ;
  mms:ordinal "20"^^xsd:positiveInteger ;
  cdiscs:dataElementCompliance <http://rdf.cdisc.org/std/cdash-1-1#Classifier.HighlyRecommendedField> ;
.
<http://rdf.cdisc.org/std/cdash-1-1#Field.AE.AEACNOTH>
  rdf:type mms:DataCollectionField ;
  mms:context <http://rdf.cdisc.org/std/cdash-1-1#Form.AE> ;
  mms:dataElement <http://rdf.cdisc.org/std/cdash-1-1#DataElement.AE.AEACNOTH> ;
  mms:ordinal "21"^^xsd:positiveInteger ;
  cdiscs:dataElementCompliance <http://rdf.cdisc.org/std/cdash-1-1#Classifier.OptionalField> ;
.
<http://rdf.cdisc.org/std/cdash-1-1#Field.AE.AEDIS>
  rdf:type mms:DataCollectionField ;
  mms:context <http://rdf.cdisc.org/std/cdash-1-1#Form.AE> ;
  mms:dataElement <http://rdf.cdisc.org/std/cdash-1-1#DataElement.AE.AEDIS> ;
  mms:ordinal "23"^^xsd:positiveInteger ;
  cdiscs:dataElementCompliance <http://rdf.cdisc.org/std/cdash-1-1#Classifier.OptionalField> ;
.
<http://rdf.cdisc.org/std/cdash-1-1#Field.AE.AEENDAT>
  rdf:type mms:DataCollectionField ;
  mms:context <http://rdf.cdisc.org/std/cdash-1-1#Form.AE> ;
  mms:dataElement <http://rdf.cdisc.org/std/cdash-1-1#DataElement.AE.AEENDAT> ;
  mms:ordinal "7"^^xsd:positiveInteger ;
  cdiscs:dataElementCompliance <http://rdf.cdisc.org/std/cdash-1-1#Classifier.HighlyRecommendedField> ;
.
<http://rdf.cdisc.org/std/cdash-1-1#Field.AE.AEENTIM>
  rdf:type mms:DataCollectionField ;
  mms:context <http://rdf.cdisc.org/std/cdash-1-1#Form.AE> ;
  mms:dataElement <http://rdf.cdisc.org/std/cdash-1-1#DataElement.AE.AEENTIM> ;
  mms:ordinal "8"^^xsd:positiveInteger ;
  cdiscs:dataElementCompliance <http://rdf.cdisc.org/std/cdash-1-1#Classifier.RecommendedOrConditionalField> ;
.
<http://rdf.cdisc.org/std/cdash-1-1#Field.AE.AEOCCUR>
  rdf:type mms:DataCollectionField ;
  mms:context <http://rdf.cdisc.org/std/cdash-1-1#Form.AE> ;
  mms:dataElement <http://rdf.cdisc.org/std/cdash-1-1#DataElement.AE.AEOCCUR> ;
  mms:ordinal "4"^^xsd:positiveInteger ;
  cdiscs:dataElementCompliance <http://rdf.cdisc.org/std/cdash-1-1#Classifier.OptionalField> ;
.
<http://rdf.cdisc.org/std/cdash-1-1#Field.AE.AEONGO>
  rdf:type mms:DataCollectionField ;
  mms:context <http://rdf.cdisc.org/std/cdash-1-1#Form.AE> ;
  mms:dataElement <http://rdf.cdisc.org/std/cdash-1-1#DataElement.AE.AEONGO> ;
  mms:ordinal "9"^^xsd:positiveInteger ;
  cdiscs:dataElementCompliance <http://rdf.cdisc.org/std/cdash-1-1#Classifier.OptionalField> ;
.
<http://rdf.cdisc.org/std/cdash-1-1#Field.AE.AEOUT>
  rdf:type mms:DataCollectionField ;
  mms:context <http://rdf.cdisc.org/std/cdash-1-1#Form.AE> ;
  mms:dataElement <http://rdf.cdisc.org/std/cdash-1-1#DataElement.AE.AEOUT> ;
  mms:ordinal "22"^^xsd:positiveInteger ;
  cdiscs:dataElementCompliance <http://rdf.cdisc.org/std/cdash-1-1#Classifier.HighlyRecommendedField> ;
.
<http://rdf.cdisc.org/std/cdash-1-1#Field.AE.AEREL>
  rdf:type mms:DataCollectionField ;
  mms:context <http://rdf.cdisc.org/std/cdash-1-1#Form.AE> ;
  mms:dataElement <http://rdf.cdisc.org/std/cdash-1-1#DataElement.AE.AEREL> ;
  mms:ordinal "19"^^xsd:positiveInteger ;
  cdiscs:dataElementCompliance <http://rdf.cdisc.org/std/cdash-1-1#Classifier.HighlyRecommendedField> ;
.
<http://rdf.cdisc.org/std/cdash-1-1#Field.AE.AESCONG>
  rdf:type mms:DataCollectionField ;
  mms:context <http://rdf.cdisc.org/std/cdash-1-1#Form.AE> ;
  mms:dataElement <http://rdf.cdisc.org/std/cdash-1-1#DataElement.AE.AESCONG> ;
  mms:ordinal "13"^^xsd:positiveInteger ;
  cdiscs:dataElementCompliance <http://rdf.cdisc.org/std/cdash-1-1#Classifier.RecommendedOrConditionalField> ;
.
<http://rdf.cdisc.org/std/cdash-1-1#Field.AE.AESDISAB>
  rdf:type mms:DataCollectionField ;
  mms:context <http://rdf.cdisc.org/std/cdash-1-1#Form.AE> ;
  mms:dataElement <http://rdf.cdisc.org/std/cdash-1-1#DataElement.AE.AESDISAB> ;
  mms:ordinal "14"^^xsd:positiveInteger ;
  cdiscs:dataElementCompliance <http://rdf.cdisc.org/std/cdash-1-1#Classifier.RecommendedOrConditionalField> ;
.
<http://rdf.cdisc.org/std/cdash-1-1#Field.AE.AESDTH>
  rdf:type mms:DataCollectionField ;
  mms:context <http://rdf.cdisc.org/std/cdash-1-1#Form.AE> ;
  mms:dataElement <http://rdf.cdisc.org/std/cdash-1-1#DataElement.AE.AESDTH> ;
  mms:ordinal "15"^^xsd:positiveInteger ;
  cdiscs:dataElementCompliance <http://rdf.cdisc.org/std/cdash-1-1#Classifier.RecommendedOrConditionalField> ;
.
<http://rdf.cdisc.org/std/cdash-1-1#Field.AE.AESER>
  rdf:type mms:DataCollectionField ;
  mms:context <http://rdf.cdisc.org/std/cdash-1-1#Form.AE> ;
  mms:dataElement <http://rdf.cdisc.org/std/cdash-1-1#DataElement.AE.AESER> ;
  mms:ordinal "12"^^xsd:positiveInteger ;
  cdiscs:dataElementCompliance <http://rdf.cdisc.org/std/cdash-1-1#Classifier.RecommendedOrConditionalField> ;
.
<http://rdf.cdisc.org/std/cdash-1-1#Field.AE.AESEV>
  rdf:type mms:DataCollectionField ;
  mms:context <http://rdf.cdisc.org/std/cdash-1-1#Form.AE> ;
  mms:dataElement <http://rdf.cdisc.org/std/cdash-1-1#DataElement.AE.AESEV> ;
  mms:ordinal "10"^^xsd:positiveInteger ;
  cdiscs:dataElementCompliance <http://rdf.cdisc.org/std/cdash-1-1#Classifier.RecommendedOrConditionalField> ;
.
<http://rdf.cdisc.org/std/cdash-1-1#Field.AE.AESHOSP>
  rdf:type mms:DataCollectionField ;
  mms:context <http://rdf.cdisc.org/std/cdash-1-1#Form.AE> ;
  mms:dataElement <http://rdf.cdisc.org/std/cdash-1-1#DataElement.AE.AESHOSP> ;
  mms:ordinal "16"^^xsd:positiveInteger ;
  cdiscs:dataElementCompliance <http://rdf.cdisc.org/std/cdash-1-1#Classifier.RecommendedOrConditionalField> ;
.
<http://rdf.cdisc.org/std/cdash-1-1#Field.AE.AESLIFE>
  rdf:type mms:DataCollectionField ;
  mms:context <http://rdf.cdisc.org/std/cdash-1-1#Form.AE> ;
  mms:dataElement <http://rdf.cdisc.org/std/cdash-1-1#DataElement.AE.AESLIFE> ;
  mms:ordinal "17"^^xsd:positiveInteger ;
  cdiscs:dataElementCompliance <http://rdf.cdisc.org/std/cdash-1-1#Classifier.RecommendedOrConditionalField> ;
.
<http://rdf.cdisc.org/std/cdash-1-1#Field.AE.AESMIE>
  rdf:type mms:DataCollectionField ;
  mms:context <http://rdf.cdisc.org/std/cdash-1-1#Form.AE> ;
  mms:dataElement <http://rdf.cdisc.org/std/cdash-1-1#DataElement.AE.AESMIE> ;
  mms:ordinal "18"^^xsd:positiveInteger ;
  cdiscs:dataElementCompliance <http://rdf.cdisc.org/std/cdash-1-1#Classifier.RecommendedOrConditionalField> ;
.
<http://rdf.cdisc.org/std/cdash-1-1#Field.AE.AESPID>
  rdf:type mms:DataCollectionField ;
  mms:context <http://rdf.cdisc.org/std/cdash-1-1#Form.AE> ;
  mms:dataElement <http://rdf.cdisc.org/std/cdash-1-1#DataElement.AE.AESPID> ;
  mms:ordinal "2"^^xsd:positiveInteger ;
  cdiscs:dataElementCompliance <http://rdf.cdisc.org/std/cdash-1-1#Classifier.OptionalField> ;
.
<http://rdf.cdisc.org/std/cdash-1-1#Field.AE.AESTDAT>
  rdf:type mms:DataCollectionField ;
  mms:context <http://rdf.cdisc.org/std/cdash-1-1#Form.AE> ;
  mms:dataElement <http://rdf.cdisc.org/std/cdash-1-1#DataElement.AE.AESTDAT> ;
  mms:ordinal "5"^^xsd:positiveInteger ;
  cdiscs:dataElementCompliance <http://rdf.cdisc.org/std/cdash-1-1#Classifier.HighlyRecommendedField> ;
.
<http://rdf.cdisc.org/std/cdash-1-1#Field.AE.AESTTIM>
  rdf:type mms:DataCollectionField ;
  mms:context <http://rdf.cdisc.org/std/cdash-1-1#Form.AE> ;
  mms:dataElement <http://rdf.cdisc.org/std/cdash-1-1#DataElement.AE.AESTTIM> ;
  mms:ordinal "6"^^xsd:positiveInteger ;
  cdiscs:dataElementCompliance <http://rdf.cdisc.org/std/cdash-1-1#Classifier.RecommendedOrConditionalField> ;
.
<http://rdf.cdisc.org/std/cdash-1-1#Field.AE.AETERM>
  rdf:type mms:DataCollectionField ;
  mms:context <http://rdf.cdisc.org/std/cdash-1-1#Form.AE> ;
  mms:dataElement <http://rdf.cdisc.org/std/cdash-1-1#DataElement.AE.AETERM> ;
  mms:ordinal "3"^^xsd:positiveInteger ;
  cdiscs:dataElementCompliance <http://rdf.cdisc.org/std/cdash-1-1#Classifier.HighlyRecommendedField> ;
.
<http://rdf.cdisc.org/std/cdash-1-1#Field.AE.AETOXGR>
  rdf:type mms:DataCollectionField ;
  mms:context <http://rdf.cdisc.org/std/cdash-1-1#Form.AE> ;
  mms:dataElement <http://rdf.cdisc.org/std/cdash-1-1#DataElement.AE.AETOXGR> ;
  mms:ordinal "11"^^xsd:positiveInteger ;
  cdiscs:dataElementCompliance <http://rdf.cdisc.org/std/cdash-1-1#Classifier.RecommendedOrConditionalField> ;
.
<http://rdf.cdisc.org/std/cdash-1-1#Field.AE.AEYN>
  rdf:type mms:DataCollectionField ;
  mms:context <http://rdf.cdisc.org/std/cdash-1-1#Form.AE> ;
  mms:dataElement <http://rdf.cdisc.org/std/cdash-1-1#DataElement.AE.AEYN> ;
  mms:ordinal "1"^^xsd:positiveInteger ;
  cdiscs:dataElementCompliance <http://rdf.cdisc.org/std/cdash-1-1#Classifier.OptionalField> ;
.
<http://rdf.cdisc.org/std/cdash-1-1#Field.CM.CMAENO>
  rdf:type mms:DataCollectionField ;
  mms:context <http://rdf.cdisc.org/std/cdash-1-1#Form.CM> ;
  mms:dataElement <http://rdf.cdisc.org/std/cdash-1-1#DataElement.CM.CMAENO> ;
  mms:ordinal "7"^^xsd:positiveInteger ;
  cdiscs:dataElementCompliance <http://rdf.cdisc.org/std/cdash-1-1#Classifier.OptionalField> ;
.
<http://rdf.cdisc.org/std/cdash-1-1#Field.CM.CMDOSFRM>
  rdf:type mms:DataCollectionField ;
  mms:context <http://rdf.cdisc.org/std/cdash-1-1#Form.CM> ;
  mms:dataElement <http://rdf.cdisc.org/std/cdash-1-1#DataElement.CM.CMDOSFRM> ;
  mms:ordinal "12"^^xsd:positiveInteger ;
  cdiscs:dataElementCompliance <http://rdf.cdisc.org/std/cdash-1-1#Classifier.OptionalField> ;
.
<http://rdf.cdisc.org/std/cdash-1-1#Field.CM.CMDOSFRQ>
  rdf:type mms:DataCollectionField ;
  mms:context <http://rdf.cdisc.org/std/cdash-1-1#Form.CM> ;
  mms:dataElement <http://rdf.cdisc.org/std/cdash-1-1#DataElement.CM.CMDOSFRQ> ;
  mms:ordinal "13"^^xsd:positiveInteger ;
  cdiscs:dataElementCompliance <http://rdf.cdisc.org/std/cdash-1-1#Classifier.OptionalField> ;
.
<http://rdf.cdisc.org/std/cdash-1-1#Field.CM.CMDOSTOT>
  rdf:type mms:DataCollectionField ;
  mms:context <http://rdf.cdisc.org/std/cdash-1-1#Form.CM> ;
  mms:dataElement <http://rdf.cdisc.org/std/cdash-1-1#DataElement.CM.CMDOSTOT> ;
  mms:ordinal "10"^^xsd:positiveInteger ;
  cdiscs:dataElementCompliance <http://rdf.cdisc.org/std/cdash-1-1#Classifier.OptionalField> ;
.
<http://rdf.cdisc.org/std/cdash-1-1#Field.CM.CMDOSU>
  rdf:type mms:DataCollectionField ;
  mms:context <http://rdf.cdisc.org/std/cdash-1-1#Form.CM> ;
  mms:dataElement <http://rdf.cdisc.org/std/cdash-1-1#DataElement.CM.CMDOSU> ;
  mms:ordinal "11"^^xsd:positiveInteger ;
  cdiscs:dataElementCompliance <http://rdf.cdisc.org/std/cdash-1-1#Classifier.OptionalField> ;
.
<http://rdf.cdisc.org/std/cdash-1-1#Field.CM.CMDSTXT>
  rdf:type mms:DataCollectionField ;
  mms:context <http://rdf.cdisc.org/std/cdash-1-1#Form.CM> ;
  mms:dataElement <http://rdf.cdisc.org/std/cdash-1-1#DataElement.CM.CMDSTXT> ;
  mms:ordinal "9"^^xsd:positiveInteger ;
  cdiscs:dataElementCompliance <http://rdf.cdisc.org/std/cdash-1-1#Classifier.OptionalField> ;
.
<http://rdf.cdisc.org/std/cdash-1-1#Field.CM.CMENDAT>
  rdf:type mms:DataCollectionField ;
  mms:context <http://rdf.cdisc.org/std/cdash-1-1#Form.CM> ;
  mms:dataElement <http://rdf.cdisc.org/std/cdash-1-1#DataElement.CM.CMENDAT> ;
  mms:ordinal "18"^^xsd:positiveInteger ;
  cdiscs:dataElementCompliance <http://rdf.cdisc.org/std/cdash-1-1#Classifier.RecommendedOrConditionalField> ;
.
<http://rdf.cdisc.org/std/cdash-1-1#Field.CM.CMENTIM>
  rdf:type mms:DataCollectionField ;
  mms:context <http://rdf.cdisc.org/std/cdash-1-1#Form.CM> ;
  mms:dataElement <http://rdf.cdisc.org/std/cdash-1-1#DataElement.CM.CMENTIM> ;
  mms:ordinal "19"^^xsd:positiveInteger ;
  cdiscs:dataElementCompliance <http://rdf.cdisc.org/std/cdash-1-1#Classifier.RecommendedOrConditionalField> ;
.
<http://rdf.cdisc.org/std/cdash-1-1#Field.CM.CMINDC>
  rdf:type mms:DataCollectionField ;
  mms:context <http://rdf.cdisc.org/std/cdash-1-1#Form.CM> ;
  mms:dataElement <http://rdf.cdisc.org/std/cdash-1-1#DataElement.CM.CMINDC> ;
  mms:ordinal "6"^^xsd:positiveInteger ;
  cdiscs:dataElementCompliance <http://rdf.cdisc.org/std/cdash-1-1#Classifier.RecommendedOrConditionalField> ;
.
<http://rdf.cdisc.org/std/cdash-1-1#Field.CM.CMINGRD>
  rdf:type mms:DataCollectionField ;
  mms:context <http://rdf.cdisc.org/std/cdash-1-1#Form.CM> ;
  mms:dataElement <http://rdf.cdisc.org/std/cdash-1-1#DataElement.CM.CMINGRD> ;
  mms:ordinal "5"^^xsd:positiveInteger ;
  cdiscs:dataElementCompliance <http://rdf.cdisc.org/std/cdash-1-1#Classifier.OptionalField> ;
.
<http://rdf.cdisc.org/std/cdash-1-1#Field.CM.CMMHNO>
  rdf:type mms:DataCollectionField ;
  mms:context <http://rdf.cdisc.org/std/cdash-1-1#Form.CM> ;
  mms:dataElement <http://rdf.cdisc.org/std/cdash-1-1#DataElement.CM.CMMHNO> ;
  mms:ordinal "8"^^xsd:positiveInteger ;
  cdiscs:dataElementCompliance <http://rdf.cdisc.org/std/cdash-1-1#Classifier.OptionalField> ;
.
<http://rdf.cdisc.org/std/cdash-1-1#Field.CM.CMOCCUR>
  rdf:type mms:DataCollectionField ;
  mms:context <http://rdf.cdisc.org/std/cdash-1-1#Form.CM> ;
  mms:dataElement <http://rdf.cdisc.org/std/cdash-1-1#DataElement.CM.CMOCCUR> ;
  mms:ordinal "4"^^xsd:positiveInteger ;
  cdiscs:dataElementCompliance <http://rdf.cdisc.org/std/cdash-1-1#Classifier.OptionalField> ;
.
<http://rdf.cdisc.org/std/cdash-1-1#Field.CM.CMONGO>
  rdf:type mms:DataCollectionField ;
  mms:context <http://rdf.cdisc.org/std/cdash-1-1#Form.CM> ;
  mms:dataElement <http://rdf.cdisc.org/std/cdash-1-1#DataElement.CM.CMONGO> ;
  mms:ordinal "20"^^xsd:positiveInteger ;
  cdiscs:dataElementCompliance <http://rdf.cdisc.org/std/cdash-1-1#Classifier.RecommendedOrConditionalField> ;
.
<http://rdf.cdisc.org/std/cdash-1-1#Field.CM.CMPRIOR>
  rdf:type mms:DataCollectionField ;
  mms:context <http://rdf.cdisc.org/std/cdash-1-1#Form.CM> ;
  mms:dataElement <http://rdf.cdisc.org/std/cdash-1-1#DataElement.CM.CMPRIOR> ;
  mms:ordinal "17"^^xsd:positiveInteger ;
  cdiscs:dataElementCompliance <http://rdf.cdisc.org/std/cdash-1-1#Classifier.RecommendedOrConditionalField> ;
.
<http://rdf.cdisc.org/std/cdash-1-1#Field.CM.CMROUTE>
  rdf:type mms:DataCollectionField ;
  mms:context <http://rdf.cdisc.org/std/cdash-1-1#Form.CM> ;
  mms:dataElement <http://rdf.cdisc.org/std/cdash-1-1#DataElement.CM.CMROUTE> ;
  mms:ordinal "14"^^xsd:positiveInteger ;
  cdiscs:dataElementCompliance <http://rdf.cdisc.org/std/cdash-1-1#Classifier.RecommendedOrConditionalField> ;
.
<http://rdf.cdisc.org/std/cdash-1-1#Field.CM.CMSPID>
  rdf:type mms:DataCollectionField ;
  mms:context <http://rdf.cdisc.org/std/cdash-1-1#Form.CM> ;
  mms:dataElement <http://rdf.cdisc.org/std/cdash-1-1#DataElement.CM.CMSPID> ;
  mms:ordinal "2"^^xsd:positiveInteger ;
  cdiscs:dataElementCompliance <http://rdf.cdisc.org/std/cdash-1-1#Classifier.OptionalField> ;
.
<http://rdf.cdisc.org/std/cdash-1-1#Field.CM.CMSTDAT>
  rdf:type mms:DataCollectionField ;
  mms:context <http://rdf.cdisc.org/std/cdash-1-1#Form.CM> ;
  mms:dataElement <http://rdf.cdisc.org/std/cdash-1-1#DataElement.CM.CMSTDAT> ;
  mms:ordinal "15"^^xsd:positiveInteger ;
  cdiscs:dataElementCompliance <http://rdf.cdisc.org/std/cdash-1-1#Classifier.HighlyRecommendedField> ;
.
<http://rdf.cdisc.org/std/cdash-1-1#Field.CM.CMSTTIM>
  rdf:type mms:DataCollectionField ;
  mms:context <http://rdf.cdisc.org/std/cdash-1-1#Form.CM> ;
  mms:dataElement <http://rdf.cdisc.org/std/cdash-1-1#DataElement.CM.CMSTTIM> ;
  mms:ordinal "16"^^xsd:positiveInteger ;
  cdiscs:dataElementCompliance <http://rdf.cdisc.org/std/cdash-1-1#Classifier.RecommendedOrConditionalField> ;
.
<http://rdf.cdisc.org/std/cdash-1-1#Field.CM.CMTRT>
  rdf:type mms:DataCollectionField ;
  mms:context <http://rdf.cdisc.org/std/cdash-1-1#Form.CM> ;
  mms:dataElement <http://rdf.cdisc.org/std/cdash-1-1#DataElement.CM.CMTRT> ;
  mms:ordinal "3"^^xsd:positiveInteger ;
  cdiscs:dataElementCompliance <http://rdf.cdisc.org/std/cdash-1-1#Classifier.HighlyRecommendedField> ;
.
<http://rdf.cdisc.org/std/cdash-1-1#Field.CM.CMYN>
  rdf:type mms:DataCollectionField ;
  mms:context <http://rdf.cdisc.org/std/cdash-1-1#Form.CM> ;
  mms:dataElement <http://rdf.cdisc.org/std/cdash-1-1#DataElement.CM.CMYN> ;
  mms:ordinal "1"^^xsd:positiveInteger ;
  cdiscs:dataElementCompliance <http://rdf.cdisc.org/std/cdash-1-1#Classifier.OptionalField> ;
.
<http://rdf.cdisc.org/std/cdash-1-1#Field.DA.DACAT>
  rdf:type mms:DataCollectionField ;
  mms:context <http://rdf.cdisc.org/std/cdash-1-1#Form.DA> ;
  mms:dataElement <http://rdf.cdisc.org/std/cdash-1-1#DataElement.DA.DACAT> ;
  mms:ordinal "2"^^xsd:positiveInteger ;
  cdiscs:dataElementCompliance <http://rdf.cdisc.org/std/cdash-1-1#Classifier.OptionalField> ;
.
<http://rdf.cdisc.org/std/cdash-1-1#Field.DA.DADAT>
  rdf:type mms:DataCollectionField ;
  mms:context <http://rdf.cdisc.org/std/cdash-1-1#Form.DA> ;
  mms:dataElement <http://rdf.cdisc.org/std/cdash-1-1#DataElement.DA.DADAT> ;
  mms:ordinal "4"^^xsd:positiveInteger ;
  cdiscs:dataElementCompliance <http://rdf.cdisc.org/std/cdash-1-1#Classifier.RecommendedOrConditionalField> ;
.
<http://rdf.cdisc.org/std/cdash-1-1#Field.DA.DAORRES>
  rdf:type mms:DataCollectionField ;
  mms:context <http://rdf.cdisc.org/std/cdash-1-1#Form.DA> ;
  mms:dataElement <http://rdf.cdisc.org/std/cdash-1-1#DataElement.DA.DAORRES> ;
  mms:ordinal "7"^^xsd:positiveInteger ;
  cdiscs:dataElementCompliance <http://rdf.cdisc.org/std/cdash-1-1#Classifier.HighlyRecommendedField> ;
.
<http://rdf.cdisc.org/std/cdash-1-1#Field.DA.DAORRESU>
  rdf:type mms:DataCollectionField ;
  mms:context <http://rdf.cdisc.org/std/cdash-1-1#Form.DA> ;
  mms:dataElement <http://rdf.cdisc.org/std/cdash-1-1#DataElement.DA.DAORRESU> ;
  mms:ordinal "8"^^xsd:positiveInteger ;
  cdiscs:dataElementCompliance <http://rdf.cdisc.org/std/cdash-1-1#Classifier.HighlyRecommendedField> ;
.
<http://rdf.cdisc.org/std/cdash-1-1#Field.DA.DAPERF>
  rdf:type mms:DataCollectionField ;
  mms:context <http://rdf.cdisc.org/std/cdash-1-1#Form.DA> ;
  mms:dataElement <http://rdf.cdisc.org/std/cdash-1-1#DataElement.DA.DAPERF> ;
  mms:ordinal "1"^^xsd:positiveInteger ;
  cdiscs:dataElementCompliance <http://rdf.cdisc.org/std/cdash-1-1#Classifier.OptionalField> ;
.
<http://rdf.cdisc.org/std/cdash-1-1#Field.DA.DAREFID>
  rdf:type mms:DataCollectionField ;
  mms:context <http://rdf.cdisc.org/std/cdash-1-1#Form.DA> ;
  mms:dataElement <http://rdf.cdisc.org/std/cdash-1-1#DataElement.DA.DAREFID> ;
  mms:ordinal "5"^^xsd:positiveInteger ;
  cdiscs:dataElementCompliance <http://rdf.cdisc.org/std/cdash-1-1#Classifier.OptionalField> ;
.
<http://rdf.cdisc.org/std/cdash-1-1#Field.DA.DASCAT>
  rdf:type mms:DataCollectionField ;
  mms:context <http://rdf.cdisc.org/std/cdash-1-1#Form.DA> ;
  mms:dataElement <http://rdf.cdisc.org/std/cdash-1-1#DataElement.DA.DASCAT> ;
  mms:ordinal "3"^^xsd:positiveInteger ;
  cdiscs:dataElementCompliance <http://rdf.cdisc.org/std/cdash-1-1#Classifier.OptionalField> ;
.
<http://rdf.cdisc.org/std/cdash-1-1#Field.DA.DATEST>
  rdf:type mms:DataCollectionField ;
  mms:context <http://rdf.cdisc.org/std/cdash-1-1#Form.DA> ;
  mms:dataElement <http://rdf.cdisc.org/std/cdash-1-1#DataElement.DA.DATEST> ;
  mms:ordinal "6"^^xsd:positiveInteger ;
  cdiscs:dataElementCompliance <http://rdf.cdisc.org/std/cdash-1-1#Classifier.HighlyRecommendedField> ;
.
<http://rdf.cdisc.org/std/cdash-1-1#Field.DA.DATESTCD>
  rdf:type mms:DataCollectionField ;
  mms:context <http://rdf.cdisc.org/std/cdash-1-1#Form.DA> ;
  mms:dataElement <http://rdf.cdisc.org/std/cdash-1-1#DataElement.DA.DATESTCD> ;
  mms:ordinal "6"^^xsd:positiveInteger ;
  cdiscs:dataElementCompliance <http://rdf.cdisc.org/std/cdash-1-1#Classifier.HighlyRecommendedField> ;
.
<http://rdf.cdisc.org/std/cdash-1-1#Field.DM.AGE>
  rdf:type mms:DataCollectionField ;
  mms:context <http://rdf.cdisc.org/std/cdash-1-1#Form.DM> ;
  mms:dataElement <http://rdf.cdisc.org/std/cdash-1-1#DataElement.DM.AGE> ;
  mms:ordinal "6"^^xsd:positiveInteger ;
  cdiscs:dataElementCompliance <http://rdf.cdisc.org/std/cdash-1-1#Classifier.OptionalField> ;
.
<http://rdf.cdisc.org/std/cdash-1-1#Field.DM.AGEU>
  rdf:type mms:DataCollectionField ;
  mms:context <http://rdf.cdisc.org/std/cdash-1-1#Form.DM> ;
  mms:dataElement <http://rdf.cdisc.org/std/cdash-1-1#DataElement.DM.AGEU> ;
  mms:ordinal "7"^^xsd:positiveInteger ;
  cdiscs:dataElementCompliance <http://rdf.cdisc.org/std/cdash-1-1#Classifier.OptionalField> ;
.
<http://rdf.cdisc.org/std/cdash-1-1#Field.DM.BRTHDAT>
  rdf:type mms:DataCollectionField ;
  mms:context <http://rdf.cdisc.org/std/cdash-1-1#Form.DM> ;
  mms:dataElement <http://rdf.cdisc.org/std/cdash-1-1#DataElement.DM.BRTHDAT> ;
  mms:ordinal "1"^^xsd:positiveInteger ;
  cdiscs:dataElementCompliance <http://rdf.cdisc.org/std/cdash-1-1#Classifier.HighlyRecommendedField> ;
.
<http://rdf.cdisc.org/std/cdash-1-1#Field.DM.BRTHDY>
  rdf:type mms:DataCollectionField ;
  mms:context <http://rdf.cdisc.org/std/cdash-1-1#Form.DM> ;
  mms:dataElement <http://rdf.cdisc.org/std/cdash-1-1#DataElement.DM.BRTHDY> ;
  mms:ordinal "4"^^xsd:positiveInteger ;
  cdiscs:dataElementCompliance <http://rdf.cdisc.org/std/cdash-1-1#Classifier.RecommendedOrConditionalField> ;
.
<http://rdf.cdisc.org/std/cdash-1-1#Field.DM.BRTHMO>
  rdf:type mms:DataCollectionField ;
  mms:context <http://rdf.cdisc.org/std/cdash-1-1#Form.DM> ;
  mms:dataElement <http://rdf.cdisc.org/std/cdash-1-1#DataElement.DM.BRTHMO> ;
  mms:ordinal "3"^^xsd:positiveInteger ;
  cdiscs:dataElementCompliance <http://rdf.cdisc.org/std/cdash-1-1#Classifier.RecommendedOrConditionalField> ;
.
<http://rdf.cdisc.org/std/cdash-1-1#Field.DM.BRTHTIM>
  rdf:type mms:DataCollectionField ;
  mms:context <http://rdf.cdisc.org/std/cdash-1-1#Form.DM> ;
  mms:dataElement <http://rdf.cdisc.org/std/cdash-1-1#DataElement.DM.BRTHTIM> ;
  mms:ordinal "5"^^xsd:positiveInteger ;
  cdiscs:dataElementCompliance <http://rdf.cdisc.org/std/cdash-1-1#Classifier.OptionalField> ;
.
<http://rdf.cdisc.org/std/cdash-1-1#Field.DM.BRTHYR>
  rdf:type mms:DataCollectionField ;
  mms:context <http://rdf.cdisc.org/std/cdash-1-1#Form.DM> ;
  mms:dataElement <http://rdf.cdisc.org/std/cdash-1-1#DataElement.DM.BRTHYR> ;
  mms:ordinal "2"^^xsd:positiveInteger ;
  cdiscs:dataElementCompliance <http://rdf.cdisc.org/std/cdash-1-1#Classifier.HighlyRecommendedField> ;
.
<http://rdf.cdisc.org/std/cdash-1-1#Field.DM.DMDAT>
  rdf:type mms:DataCollectionField ;
  mms:context <http://rdf.cdisc.org/std/cdash-1-1#Form.DM> ;
  mms:dataElement <http://rdf.cdisc.org/std/cdash-1-1#DataElement.DM.DMDAT> ;
  mms:ordinal "8"^^xsd:positiveInteger ;
  cdiscs:dataElementCompliance <http://rdf.cdisc.org/std/cdash-1-1#Classifier.RecommendedOrConditionalField> ;
.
<http://rdf.cdisc.org/std/cdash-1-1#Field.DM.ETHNIC>
  rdf:type mms:DataCollectionField ;
  mms:context <http://rdf.cdisc.org/std/cdash-1-1#Form.DM> ;
  mms:dataElement <http://rdf.cdisc.org/std/cdash-1-1#DataElement.DM.ETHNIC> ;
  mms:ordinal "10"^^xsd:positiveInteger ;
  cdiscs:dataElementCompliance <http://rdf.cdisc.org/std/cdash-1-1#Classifier.RecommendedOrConditionalField> ;
.
<http://rdf.cdisc.org/std/cdash-1-1#Field.DM.RACE>
  rdf:type mms:DataCollectionField ;
  mms:context <http://rdf.cdisc.org/std/cdash-1-1#Form.DM> ;
  mms:dataElement <http://rdf.cdisc.org/std/cdash-1-1#DataElement.DM.RACE> ;
  mms:ordinal "11"^^xsd:positiveInteger ;
  cdiscs:dataElementCompliance <http://rdf.cdisc.org/std/cdash-1-1#Classifier.RecommendedOrConditionalField> ;
.
<http://rdf.cdisc.org/std/cdash-1-1#Field.DM.RACEOTH>
  rdf:type mms:DataCollectionField ;
  mms:context <http://rdf.cdisc.org/std/cdash-1-1#Form.DM> ;
  mms:dataElement <http://rdf.cdisc.org/std/cdash-1-1#DataElement.DM.RACEOTH> ;
  mms:ordinal "12"^^xsd:positiveInteger ;
  cdiscs:dataElementCompliance <http://rdf.cdisc.org/std/cdash-1-1#Classifier.OptionalField> ;
.
<http://rdf.cdisc.org/std/cdash-1-1#Field.DM.SEX>
  rdf:type mms:DataCollectionField ;
  mms:context <http://rdf.cdisc.org/std/cdash-1-1#Form.DM> ;
  mms:dataElement <http://rdf.cdisc.org/std/cdash-1-1#DataElement.DM.SEX> ;
  mms:ordinal "9"^^xsd:positiveInteger ;
  cdiscs:dataElementCompliance <http://rdf.cdisc.org/std/cdash-1-1#Classifier.HighlyRecommendedField> ;
.
<http://rdf.cdisc.org/std/cdash-1-1#Field.DS.DSCONT>
  rdf:type mms:DataCollectionField ;
  mms:context <http://rdf.cdisc.org/std/cdash-1-1#Form.DS> ;
  mms:dataElement <http://rdf.cdisc.org/std/cdash-1-1#DataElement.DS.DSCONT> ;
  mms:ordinal "7"^^xsd:positiveInteger ;
  cdiscs:dataElementCompliance <http://rdf.cdisc.org/std/cdash-1-1#Classifier.OptionalField> ;
.
<http://rdf.cdisc.org/std/cdash-1-1#Field.DS.DSDECOD>
  rdf:type mms:DataCollectionField ;
  mms:context <http://rdf.cdisc.org/std/cdash-1-1#Form.DS> ;
  mms:dataElement <http://rdf.cdisc.org/std/cdash-1-1#DataElement.DS.DSDECOD> ;
  mms:ordinal "2"^^xsd:positiveInteger ;
  cdiscs:dataElementCompliance <http://rdf.cdisc.org/std/cdash-1-1#Classifier.RecommendedOrConditionalField> ;
.
<http://rdf.cdisc.org/std/cdash-1-1#Field.DS.DSNEXT>
  rdf:type mms:DataCollectionField ;
  mms:context <http://rdf.cdisc.org/std/cdash-1-1#Form.DS> ;
  mms:dataElement <http://rdf.cdisc.org/std/cdash-1-1#DataElement.DS.DSNEXT> ;
  mms:ordinal "8"^^xsd:positiveInteger ;
  cdiscs:dataElementCompliance <http://rdf.cdisc.org/std/cdash-1-1#Classifier.OptionalField> ;
.
<http://rdf.cdisc.org/std/cdash-1-1#Field.DS.DSSTDAT>
  rdf:type mms:DataCollectionField ;
  mms:context <http://rdf.cdisc.org/std/cdash-1-1#Form.DS> ;
  mms:dataElement <http://rdf.cdisc.org/std/cdash-1-1#DataElement.DS.DSSTDAT> ;
  mms:ordinal "4"^^xsd:positiveInteger ;
  cdiscs:dataElementCompliance <http://rdf.cdisc.org/std/cdash-1-1#Classifier.RecommendedOrConditionalField> ;
.
<http://rdf.cdisc.org/std/cdash-1-1#Field.DS.DSSTTIM>
  rdf:type mms:DataCollectionField ;
  mms:context <http://rdf.cdisc.org/std/cdash-1-1#Form.DS> ;
  mms:dataElement <http://rdf.cdisc.org/std/cdash-1-1#DataElement.DS.DSSTTIM> ;
  mms:ordinal "5"^^xsd:positiveInteger ;
  cdiscs:dataElementCompliance <http://rdf.cdisc.org/std/cdash-1-1#Classifier.OptionalField> ;
.
<http://rdf.cdisc.org/std/cdash-1-1#Field.DS.DSTERM>
  rdf:type mms:DataCollectionField ;
  mms:context <http://rdf.cdisc.org/std/cdash-1-1#Form.DS> ;
  mms:dataElement <http://rdf.cdisc.org/std/cdash-1-1#DataElement.DS.DSTERM> ;
  mms:ordinal "3"^^xsd:positiveInteger ;
  cdiscs:dataElementCompliance <http://rdf.cdisc.org/std/cdash-1-1#Classifier.RecommendedOrConditionalField> ;
.
<http://rdf.cdisc.org/std/cdash-1-1#Field.DS.DSUNBLND>
  rdf:type mms:DataCollectionField ;
  mms:context <http://rdf.cdisc.org/std/cdash-1-1#Form.DS> ;
  mms:dataElement <http://rdf.cdisc.org/std/cdash-1-1#DataElement.DS.DSUNBLND> ;
  mms:ordinal "6"^^xsd:positiveInteger ;
  cdiscs:dataElementCompliance <http://rdf.cdisc.org/std/cdash-1-1#Classifier.OptionalField> ;
.
<http://rdf.cdisc.org/std/cdash-1-1#Field.DS.EPOCH>
  rdf:type mms:DataCollectionField ;
  mms:context <http://rdf.cdisc.org/std/cdash-1-1#Form.DS> ;
  mms:dataElement <http://rdf.cdisc.org/std/cdash-1-1#DataElement.DS.EPOCH> ;
  mms:ordinal "1"^^xsd:positiveInteger ;
  cdiscs:dataElementCompliance <http://rdf.cdisc.org/std/cdash-1-1#Classifier.RecommendedOrConditionalField> ;
.
<http://rdf.cdisc.org/std/cdash-1-1#Field.DV.DVDECOD>
  rdf:type mms:DataCollectionField ;
  mms:context <http://rdf.cdisc.org/std/cdash-1-1#Form.DV> ;
  mms:dataElement <http://rdf.cdisc.org/std/cdash-1-1#DataElement.DV.DVDECOD> ;
  mms:ordinal "2"^^xsd:positiveInteger ;
  cdiscs:dataElementCompliance <http://rdf.cdisc.org/std/cdash-1-1#Classifier.RecommendedOrConditionalField> ;
.
<http://rdf.cdisc.org/std/cdash-1-1#Field.DV.DVENDAT>
  rdf:type mms:DataCollectionField ;
  mms:context <http://rdf.cdisc.org/std/cdash-1-1#Form.DV> ;
  mms:dataElement <http://rdf.cdisc.org/std/cdash-1-1#DataElement.DV.DVENDAT> ;
  mms:ordinal "6"^^xsd:positiveInteger ;
  cdiscs:dataElementCompliance <http://rdf.cdisc.org/std/cdash-1-1#Classifier.OptionalField> ;
.
<http://rdf.cdisc.org/std/cdash-1-1#Field.DV.DVENTIM>
  rdf:type mms:DataCollectionField ;
  mms:context <http://rdf.cdisc.org/std/cdash-1-1#Form.DV> ;
  mms:dataElement <http://rdf.cdisc.org/std/cdash-1-1#DataElement.DV.DVENTIM> ;
  mms:ordinal "7"^^xsd:positiveInteger ;
  cdiscs:dataElementCompliance <http://rdf.cdisc.org/std/cdash-1-1#Classifier.OptionalField> ;
.
<http://rdf.cdisc.org/std/cdash-1-1#Field.DV.DVSPID>
  rdf:type mms:DataCollectionField ;
  mms:context <http://rdf.cdisc.org/std/cdash-1-1#Form.DV> ;
  mms:dataElement <http://rdf.cdisc.org/std/cdash-1-1#DataElement.DV.DVSPID> ;
  mms:ordinal "8"^^xsd:positiveInteger ;
  cdiscs:dataElementCompliance <http://rdf.cdisc.org/std/cdash-1-1#Classifier.OptionalField> ;
.
<http://rdf.cdisc.org/std/cdash-1-1#Field.DV.DVSTDAT>
  rdf:type mms:DataCollectionField ;
  mms:context <http://rdf.cdisc.org/std/cdash-1-1#Form.DV> ;
  mms:dataElement <http://rdf.cdisc.org/std/cdash-1-1#DataElement.DV.DVSTDAT> ;
  mms:ordinal "4"^^xsd:positiveInteger ;
  cdiscs:dataElementCompliance <http://rdf.cdisc.org/std/cdash-1-1#Classifier.OptionalField> ;
.
<http://rdf.cdisc.org/std/cdash-1-1#Field.DV.DVSTTIM>
  rdf:type mms:DataCollectionField ;
  mms:context <http://rdf.cdisc.org/std/cdash-1-1#Form.DV> ;
  mms:dataElement <http://rdf.cdisc.org/std/cdash-1-1#DataElement.DV.DVSTTIM> ;
  mms:ordinal "5"^^xsd:positiveInteger ;
  cdiscs:dataElementCompliance <http://rdf.cdisc.org/std/cdash-1-1#Classifier.OptionalField> ;
.
<http://rdf.cdisc.org/std/cdash-1-1#Field.DV.DVTERM>
  rdf:type mms:DataCollectionField ;
  mms:context <http://rdf.cdisc.org/std/cdash-1-1#Form.DV> ;
  mms:dataElement <http://rdf.cdisc.org/std/cdash-1-1#DataElement.DV.DVTERM> ;
  mms:ordinal "3"^^xsd:positiveInteger ;
  cdiscs:dataElementCompliance <http://rdf.cdisc.org/std/cdash-1-1#Classifier.RecommendedOrConditionalField> ;
.
<http://rdf.cdisc.org/std/cdash-1-1#Field.DV.DVYN>
  rdf:type mms:DataCollectionField ;
  mms:context <http://rdf.cdisc.org/std/cdash-1-1#Form.DV> ;
  mms:dataElement <http://rdf.cdisc.org/std/cdash-1-1#DataElement.DV.DVYN> ;
  mms:ordinal "1"^^xsd:positiveInteger ;
  cdiscs:dataElementCompliance <http://rdf.cdisc.org/std/cdash-1-1#Classifier.OptionalField> ;
.
<http://rdf.cdisc.org/std/cdash-1-1#Field.EG.CentralProcessing.EGCLSIG>
  rdf:type mms:DataCollectionField ;
  mms:context <http://rdf.cdisc.org/std/cdash-1-1#Form.EG.CentralProcessing> ;
  mms:dataElement <http://rdf.cdisc.org/std/cdash-1-1#DataElement.EG.EGCLSIG> ;
  mms:ordinal "11"^^xsd:positiveInteger ;
  cdiscs:dataElementCompliance <http://rdf.cdisc.org/std/cdash-1-1#Classifier.HighlyRecommendedField> ;
.
<http://rdf.cdisc.org/std/cdash-1-1#Field.EG.CentralProcessing.EGDAT>
  rdf:type mms:DataCollectionField ;
  mms:context <http://rdf.cdisc.org/std/cdash-1-1#Form.EG.CentralProcessing> ;
  mms:dataElement <http://rdf.cdisc.org/std/cdash-1-1#DataElement.EG.EGDAT> ;
  mms:ordinal "5"^^xsd:positiveInteger ;
  cdiscs:dataElementCompliance <http://rdf.cdisc.org/std/cdash-1-1#Classifier.RecommendedOrConditionalField> ;
.
<http://rdf.cdisc.org/std/cdash-1-1#Field.EG.CentralProcessing.EGMETHOD>
  rdf:type mms:DataCollectionField ;
  mms:context <http://rdf.cdisc.org/std/cdash-1-1#Form.EG.CentralProcessing> ;
  mms:dataElement <http://rdf.cdisc.org/std/cdash-1-1#DataElement.EG.EGMETHOD> ;
  mms:ordinal "3"^^xsd:positiveInteger ;
  cdiscs:dataElementCompliance <http://rdf.cdisc.org/std/cdash-1-1#Classifier.OptionalField> ;
.
<http://rdf.cdisc.org/std/cdash-1-1#Field.EG.CentralProcessing.EGORRES>
  rdf:type mms:DataCollectionField ;
  mms:context <http://rdf.cdisc.org/std/cdash-1-1#Form.EG.CentralProcessing> ;
  mms:dataElement <http://rdf.cdisc.org/std/cdash-1-1#DataElement.EG.EGORRES> ;
  mms:ordinal "9"^^xsd:positiveInteger ;
  cdiscs:dataElementCompliance <http://rdf.cdisc.org/std/cdash-1-1#Classifier.RecommendedOrConditionalField> ;
.
<http://rdf.cdisc.org/std/cdash-1-1#Field.EG.CentralProcessing.EGORRESU>
  rdf:type mms:DataCollectionField ;
  mms:context <http://rdf.cdisc.org/std/cdash-1-1#Form.EG.CentralProcessing> ;
  mms:dataElement <http://rdf.cdisc.org/std/cdash-1-1#DataElement.EG.EGORRESU> ;
  mms:ordinal "10"^^xsd:positiveInteger ;
  cdiscs:dataElementCompliance <http://rdf.cdisc.org/std/cdash-1-1#Classifier.OptionalField> ;
.
<http://rdf.cdisc.org/std/cdash-1-1#Field.EG.CentralProcessing.EGPERF>
  rdf:type mms:DataCollectionField ;
  mms:context <http://rdf.cdisc.org/std/cdash-1-1#Form.EG.CentralProcessing> ;
  mms:dataElement <http://rdf.cdisc.org/std/cdash-1-1#DataElement.EG.EGPERF> ;
  mms:ordinal "1"^^xsd:positiveInteger ;
  cdiscs:dataElementCompliance <http://rdf.cdisc.org/std/cdash-1-1#Classifier.HighlyRecommendedField> ;
.
<http://rdf.cdisc.org/std/cdash-1-1#Field.EG.CentralProcessing.EGPOS>
  rdf:type mms:DataCollectionField ;
  mms:context <http://rdf.cdisc.org/std/cdash-1-1#Form.EG.CentralProcessing> ;
  mms:dataElement <http://rdf.cdisc.org/std/cdash-1-1#DataElement.EG.EGPOS> ;
  mms:ordinal "4"^^xsd:positiveInteger ;
  cdiscs:dataElementCompliance <http://rdf.cdisc.org/std/cdash-1-1#Classifier.OptionalField> ;
.
<http://rdf.cdisc.org/std/cdash-1-1#Field.EG.CentralProcessing.EGREFID>
  rdf:type mms:DataCollectionField ;
  mms:context <http://rdf.cdisc.org/std/cdash-1-1#Form.EG.CentralProcessing> ;
  mms:dataElement <http://rdf.cdisc.org/std/cdash-1-1#DataElement.EG.EGREFID> ;
  mms:ordinal "2"^^xsd:positiveInteger ;
  cdiscs:dataElementCompliance <http://rdf.cdisc.org/std/cdash-1-1#Classifier.OptionalField> ;
.
<http://rdf.cdisc.org/std/cdash-1-1#Field.EG.CentralProcessing.EGTEST>
  rdf:type mms:DataCollectionField ;
  mms:context <http://rdf.cdisc.org/std/cdash-1-1#Form.EG.CentralProcessing> ;
  mms:dataElement <http://rdf.cdisc.org/std/cdash-1-1#DataElement.EG.EGTEST> ;
  mms:ordinal "8"^^xsd:positiveInteger ;
  cdiscs:dataElementCompliance <http://rdf.cdisc.org/std/cdash-1-1#Classifier.HighlyRecommendedField> ;
.
<http://rdf.cdisc.org/std/cdash-1-1#Field.EG.CentralProcessing.EGTIM>
  rdf:type mms:DataCollectionField ;
  mms:context <http://rdf.cdisc.org/std/cdash-1-1#Form.EG.CentralProcessing> ;
  mms:dataElement <http://rdf.cdisc.org/std/cdash-1-1#DataElement.EG.EGTIM> ;
  mms:ordinal "7"^^xsd:positiveInteger ;
  cdiscs:dataElementCompliance <http://rdf.cdisc.org/std/cdash-1-1#Classifier.RecommendedOrConditionalField> ;
.
<http://rdf.cdisc.org/std/cdash-1-1#Field.EG.CentralProcessing.EGTPT>
  rdf:type mms:DataCollectionField ;
  mms:context <http://rdf.cdisc.org/std/cdash-1-1#Form.EG.CentralProcessing> ;
  mms:dataElement <http://rdf.cdisc.org/std/cdash-1-1#DataElement.EG.EGTPT> ;
  mms:ordinal "6"^^xsd:positiveInteger ;
  cdiscs:dataElementCompliance <http://rdf.cdisc.org/std/cdash-1-1#Classifier.RecommendedOrConditionalField> ;
.
<http://rdf.cdisc.org/std/cdash-1-1#Field.EG.CentralReading.EGDAT>
  rdf:type mms:DataCollectionField ;
  mms:context <http://rdf.cdisc.org/std/cdash-1-1#Form.EG.CentralReading> ;
  mms:dataElement <http://rdf.cdisc.org/std/cdash-1-1#DataElement.EG.EGDAT> ;
  mms:ordinal "5"^^xsd:positiveInteger ;
  cdiscs:dataElementCompliance <http://rdf.cdisc.org/std/cdash-1-1#Classifier.RecommendedOrConditionalField> ;
.
<http://rdf.cdisc.org/std/cdash-1-1#Field.EG.CentralReading.EGMETHOD>
  rdf:type mms:DataCollectionField ;
  mms:context <http://rdf.cdisc.org/std/cdash-1-1#Form.EG.CentralReading> ;
  mms:dataElement <http://rdf.cdisc.org/std/cdash-1-1#DataElement.EG.EGMETHOD> ;
  mms:ordinal "3"^^xsd:positiveInteger ;
  cdiscs:dataElementCompliance <http://rdf.cdisc.org/std/cdash-1-1#Classifier.OptionalField> ;
.
