# baseURI: http://rdf.cdisc.org/std/sendig-3-0
# imports: http://rdf.cdisc.org/send-terminology
# imports: http://rdf.cdisc.org/std/sdtm-1-2

# c14n-version: 3
@prefix cdiscs: <http://rdf.cdisc.org/std/schema#> .
@prefix dc: <http://purl.org/dc/elements/1.1/> .
@prefix mms: <http://rdf.cdisc.org/mms#> .
@prefix owl: <http://www.w3.org/2002/07/owl#> .
@prefix rdf: <http://www.w3.org/1999/02/22-rdf-syntax-ns#> .
@prefix rdfs: <http://www.w3.org/2000/01/rdf-schema#> .
@prefix sendct: <http://rdf.cdisc.org/send-terminology#> .
@prefix sendig-3-0: <http://rdf.cdisc.org/std/sendig-3-0#> .
@prefix skos: <http://www.w3.org/2004/02/skos/core#> .
@prefix xsd: <http://www.w3.org/2001/XMLSchema#> .
<http://rdf.cdisc.org/std/sdtm-1-2#DE.Finding.--ANTREG>
  rdf:type mms:DataElement ;
.
<http://rdf.cdisc.org/std/sdtm-1-2#DE.Finding.--CSTATE>
  rdf:type mms:DataElement ;
.
<http://rdf.cdisc.org/std/sdtm-1-2#DE.Finding.--DETECT>
  rdf:type mms:DataElement ;
.
<http://rdf.cdisc.org/std/sdtm-1-2#DE.Finding.--DIR>
  rdf:type mms:DataElement ;
.
<http://rdf.cdisc.org/std/sdtm-1-2#DE.Finding.--ELTM>
  rdf:type mms:DataElement ;
.
<http://rdf.cdisc.org/std/sdtm-1-2#DE.Finding.--ENINT>
  rdf:type mms:DataElement ;
.
<http://rdf.cdisc.org/std/sdtm-1-2#DE.Finding.--EVLINT>
  rdf:type mms:DataElement ;
.
<http://rdf.cdisc.org/std/sdtm-1-2#DE.Finding.--EXCLFL>
  rdf:type mms:DataElement ;
.
<http://rdf.cdisc.org/std/sdtm-1-2#DE.Finding.--LAT>
  rdf:type mms:DataElement ;
.
<http://rdf.cdisc.org/std/sdtm-1-2#DE.Finding.--LEAD>
  rdf:type mms:DataElement ;
.
<http://rdf.cdisc.org/std/sdtm-1-2#DE.Finding.--PORTOT>
  rdf:type mms:DataElement ;
.
<http://rdf.cdisc.org/std/sdtm-1-2#DE.Finding.--REASEX>
  rdf:type mms:DataElement ;
.
<http://rdf.cdisc.org/std/sdtm-1-2#DE.Finding.--RFTDTC>
  rdf:type mms:DataElement ;
.
<http://rdf.cdisc.org/std/sdtm-1-2#DE.Finding.--SPCUFL>
  rdf:type mms:DataElement ;
.
<http://rdf.cdisc.org/std/sdtm-1-2#DE.Finding.--STINT>
  rdf:type mms:DataElement ;
.
<http://rdf.cdisc.org/std/sdtm-1-2#DE.Finding.--TPTREF>
  rdf:type mms:DataElement ;
.
<http://rdf.cdisc.org/std/sdtm-1-2#DE.Intervention.--DUR>
  rdf:type mms:DataElement ;
.
<http://rdf.cdisc.org/std/sdtm-1-2#DE.Intervention.--ELTM>
  rdf:type mms:DataElement ;
.
<http://rdf.cdisc.org/std/sdtm-1-2#DE.Intervention.--METHOD>
  rdf:type mms:DataElement ;
.
<http://rdf.cdisc.org/std/sdtm-1-2#DE.Intervention.--RFTDTC>
  rdf:type mms:DataElement ;
.
<http://rdf.cdisc.org/std/sdtm-1-2#DE.Intervention.--TPTREF>
  rdf:type mms:DataElement ;
.
<http://rdf.cdisc.org/std/sdtm-1-2#Timing.--DTC>
  rdf:type mms:DataElement ;
.
<http://rdf.cdisc.org/std/sdtm-1-2#Timing.--DY>
  rdf:type mms:DataElement ;
.
<http://rdf.cdisc.org/std/sdtm-1-2#Timing.--ENDTC>
  rdf:type mms:DataElement ;
.
<http://rdf.cdisc.org/std/sdtm-1-2#Timing.--ENDY>
  rdf:type mms:DataElement ;
.
<http://rdf.cdisc.org/std/sdtm-1-2#Timing.--STDTC>
  rdf:type mms:DataElement ;
.
<http://rdf.cdisc.org/std/sdtm-1-2#Timing.--STDY>
  rdf:type mms:DataElement ;
.
<http://rdf.cdisc.org/std/sdtm-1-2#Timing.--TPT>
  rdf:type mms:DataElement ;
.
<http://rdf.cdisc.org/std/sdtm-1-2#Timing.--TPTNUM>
  rdf:type mms:DataElement ;
.
<http://rdf.cdisc.org/std/sdtm-1-2#Timing.VISITDY>
  rdf:type mms:DataElement ;
.
<http://rdf.cdisc.org/std/sendig-3-0>
  rdf:type owl:Ontology ;
  dc:creator "FDA/PhUSE CSS Semantic Technology Project"^^xsd:string ;
  owl:imports <http://rdf.cdisc.org/send-terminology> ;
  owl:imports <http://rdf.cdisc.org/std/sdtm-1-2> ;
  owl:versionInfo "3.0"^^xsd:string ;
  skos:definition "An ontology representing the content of the Standard for Exchange of Nonclinical Data Implementation Guide (SENDIG) Version 3.0 as published by CDISC."^^xsd:string ;
  skos:prefLabel "CDISC SEND Implementation Guide 3.0"^^xsd:string ;
.
<http://rdf.cdisc.org/std/sendig-3-0#Assumption.BG.000.001>
  rdf:type cdiscs:Assumption ;
  mms:ordinal "1"^^xsd:positiveInteger ;
  cdiscs:about <http://rdf.cdisc.org/std/sendig-3-0#Table.BG> ;
  cdiscs:assumptionText "Body weight gain is the actual difference between two body weight measurements for any given interval for a subject. This is most commonly shown as the difference between two consecutive body weight measurements."^^xsd:string ;
  cdiscs:partOfSection <http://rdf.cdisc.org/std/sendig-3-0#Section.BG.000> ;
.
<http://rdf.cdisc.org/std/sendig-3-0#Assumption.BG.000.002>
  rdf:type cdiscs:Assumption ;
  mms:ordinal "2"^^xsd:positiveInteger ;
  cdiscs:about <http://rdf.cdisc.org/std/sendig-3-0#Column.BG.BGTEST> ;
  cdiscs:about <http://rdf.cdisc.org/std/sendig-3-0#Column.BG.BGTESTCD> ;
  cdiscs:assumptionText "Additional BGTEST/BGTESTCD values may be used for alternative representation of body weight gain measurements, for example, percentage gain or average gain per subject."^^xsd:string ;
  cdiscs:partOfSection <http://rdf.cdisc.org/std/sendig-3-0#Section.BG.000> ;
.
<http://rdf.cdisc.org/std/sendig-3-0#Assumption.BG.000.003>
  rdf:type cdiscs:Assumption ;
  mms:ordinal "3"^^xsd:positiveInteger ;
  cdiscs:about <http://rdf.cdisc.org/std/sendig-3-0#Column.BG.BGORRESU> ;
  cdiscs:about <http://rdf.cdisc.org/std/sendig-3-0#Column.BG.BGSTRESU> ;
  cdiscs:assumptionText "The BGORRESU for a subject may change over the course of the study, for example, g to kg, but the BGSTRESU should remain consistent throughout the course of the study."^^xsd:string ;
  cdiscs:partOfSection <http://rdf.cdisc.org/std/sendig-3-0#Section.BG.000> ;
.
<http://rdf.cdisc.org/std/sendig-3-0#Assumption.BG.000.004>
  rdf:type cdiscs:Assumption ;
  mms:ordinal "4"^^xsd:positiveInteger ;
  cdiscs:about <http://rdf.cdisc.org/std/sendig-3-0#Column.BG.BGREASND> ;
  cdiscs:about <http://rdf.cdisc.org/std/sendig-3-0#Column.BG.BGSTAT> ;
  cdiscs:assumptionText "If one of the two body weights needed for the calculation is missing, BGSTAT should be \"NOT DONE\", and BGREASND could be \"MISSING BODY WEIGHT\"."^^xsd:string ;
  cdiscs:partOfSection <http://rdf.cdisc.org/std/sendig-3-0#Section.BG.000> ;
.
<http://rdf.cdisc.org/std/sendig-3-0#Assumption.BG.000.005>
  rdf:type cdiscs:Assumption ;
  mms:ordinal "5"^^xsd:positiveInteger ;
  cdiscs:about <http://rdf.cdisc.org/std/sendig-3-0#Column.BG.BGEXCLFL> ;
  cdiscs:about <http://rdf.cdisc.org/std/sendig-3-0#Column.BG.BGREASEX> ;
  cdiscs:assumptionText "If one of the two body weights (BW) needed for the calculation has an exclusion flag, then the corresponding BG values should have the exclusion flag set.  The BGREASEX should be \"EXCLUDED BODY WEIGHT\"."^^xsd:string ;
  cdiscs:partOfSection <http://rdf.cdisc.org/std/sendig-3-0#Section.BG.000> ;
.
<http://rdf.cdisc.org/std/sendig-3-0#Assumption.BG.000.006>
  rdf:type cdiscs:Assumption ;
  mms:ordinal "6"^^xsd:positiveInteger ;
  cdiscs:about <http://rdf.cdisc.org/std/sendig-3-0#Column.BG.BGDTC> ;
  cdiscs:about <http://rdf.cdisc.org/std/sendig-3-0#Column.BG.BGENDTC> ;
  cdiscs:assumptionText "Note that the BGDTC and BGENDTC variables are used as described in Section 4.4.6."^^xsd:string ;
  cdiscs:partOfSection <http://rdf.cdisc.org/std/sendig-3-0#Section.BG.000> ;
.
<http://rdf.cdisc.org/std/sendig-3-0#Assumption.BW.000.001>
  rdf:type cdiscs:Assumption ;
  mms:ordinal "1"^^xsd:positiveInteger ;
  cdiscs:about <http://rdf.cdisc.org/std/sendig-3-0#Table.BW> ;
  cdiscs:assumptionText "The Body Weight domain captures body weights collected for subjects during the study and at the end of the study (terminal body weights)."^^xsd:string ;
  cdiscs:partOfSection <http://rdf.cdisc.org/std/sendig-3-0#Section.BW.000> ;
.
<http://rdf.cdisc.org/std/sendig-3-0#Assumption.BW.000.002>
  rdf:type cdiscs:Assumption ;
  mms:ordinal "2"^^xsd:positiveInteger ;
  cdiscs:about <http://rdf.cdisc.org/std/sendig-3-0#Table.BW> ;
  cdiscs:assumptionText "Body weight gains are captured in the Body Weight Gain domain."^^xsd:string ;
  cdiscs:partOfSection <http://rdf.cdisc.org/std/sendig-3-0#Section.BW.000> ;
.
<http://rdf.cdisc.org/std/sendig-3-0#Assumption.BW.000.003>
  rdf:type cdiscs:Assumption ;
  mms:ordinal "3"^^xsd:positiveInteger ;
  cdiscs:about <http://rdf.cdisc.org/std/sendig-3-0#Table.BW> ;
  cdiscs:assumptionText "The following Qualifiers would not generally be used in BW: --OBJ, --CAT, --SCAT, --POS, --ORNRLO, --ORNRHI, --MODIFY, --BODSYS, --STNRLO, --STNRHI, --STNRC, --NRIND, --RESCAT, --XFN, --NAM, --LOINC, --SPEC, --SPCCND, --LOC, --METHOD, --DRVFL, --EVAL, --TOX, --TOXGR, --SEV, --DTHREL, --LLOQ."^^xsd:string ;
  cdiscs:partOfSection <http://rdf.cdisc.org/std/sendig-3-0#Section.BW.000> ;
.
<http://rdf.cdisc.org/std/sendig-3-0#Assumption.CL.001.001>
  rdf:type cdiscs:Assumption ;
  mms:ordinal "1"^^xsd:positiveInteger ;
  cdiscs:about <http://rdf.cdisc.org/std/sendig-3-0#Table.CL> ;
  cdiscs:assumptionText "The Clinical Observations domain captures clinical sign information in addition to ophthalmology, physical examination, and dermal examination collected during in-life while executing the study."^^xsd:string ;
  cdiscs:partOfSection <http://rdf.cdisc.org/std/sendig-3-0#Section.CL.001> ;
.
<http://rdf.cdisc.org/std/sendig-3-0#Assumption.CL.002.001>
  rdf:type cdiscs:Assumption ;
  mms:ordinal "2"^^xsd:positiveInteger ;
  cdiscs:about <http://rdf.cdisc.org/std/sendig-3-0#Column.CL.CLCAT> ;
  cdiscs:about <http://rdf.cdisc.org/std/sendig-3-0#Column.CL.CLSCAT> ;
  cdiscs:about <http://rdf.cdisc.org/std/sendig-3-0#Column.CL.CLTEST> ;
  cdiscs:about <http://rdf.cdisc.org/std/sendig-3-0#Column.CL.CLTESTCD> ;
  cdiscs:assumptionText "CLSCAT, CLTESTCD, and CLTEST can be used by the sponsor to categorize data that was collected during in-life observation. CLCAT is fixed to the four values specified in the controlled term list."^^xsd:string ;
  cdiscs:partOfSection <http://rdf.cdisc.org/std/sendig-3-0#Section.CL.002> ;
.
<http://rdf.cdisc.org/std/sendig-3-0#Assumption.CL.003.001>
  rdf:type cdiscs:Assumption ;
  mms:ordinal "3"^^xsd:positiveInteger ;
  cdiscs:about <http://rdf.cdisc.org/std/sendig-3-0#Column.CL.CLORRES> ;
  cdiscs:assumptionText "a. CLORRES contains the complete description of the clinical observation."^^xsd:string ;
  cdiscs:partOfSection <http://rdf.cdisc.org/std/sendig-3-0#Section.CL.003> ;
.
<http://rdf.cdisc.org/std/sendig-3-0#Assumption.CL.003.002>
  rdf:type cdiscs:Assumption ;
  mms:ordinal "4"^^xsd:positiveInteger ;
  cdiscs:about <http://rdf.cdisc.org/std/sendig-3-0#Column.CL.CLSTRESC> ;
  cdiscs:assumptionText "b. CLSTRESC should contain only the finding without modifiers. At this time it is not necessary to submit the additional modifiers elsewhere in this domain."^^xsd:string ;
  cdiscs:partOfSection <http://rdf.cdisc.org/std/sendig-3-0#Section.CL.003> ;
.
<http://rdf.cdisc.org/std/sendig-3-0#Assumption.CL.003.003>
  rdf:type cdiscs:Assumption ;
  mms:ordinal "5"^^xsd:positiveInteger ;
  cdiscs:about <http://rdf.cdisc.org/std/sendig-3-0#Column.CL.CLRESCAT> ;
  cdiscs:about <http://rdf.cdisc.org/std/sendig-3-0#Column.CL.CLSCAT> ;
  cdiscs:about <http://rdf.cdisc.org/std/sendig-3-0#Column.CL.CLTEST> ;
  cdiscs:assumptionText "c. CLRESCAT is used for post collection categorization of results and should not be a duplication of CLTEST or CLSCAT which are considered categories at the time of collection."^^xsd:string ;
  cdiscs:partOfSection <http://rdf.cdisc.org/std/sendig-3-0#Section.CL.003> ;
.
<http://rdf.cdisc.org/std/sendig-3-0#Assumption.CL.004.001>
  rdf:type cdiscs:Assumption ;
  mms:ordinal "6"^^xsd:positiveInteger ;
  cdiscs:about <http://rdf.cdisc.org/std/sendig-3-0#Column.CL.CLSPID> ;
  cdiscs:assumptionText "CLSPID variable is intended to reflect the mass identification. This variable should be used to link in-life findings with pathology findings. For a carcinogenicity study, the mass identifier in --SPID should be consistent across domains (CL, PM, MA, MI, and TF)."^^xsd:string ;
  cdiscs:partOfSection <http://rdf.cdisc.org/std/sendig-3-0#Section.CL.004> ;
.
<http://rdf.cdisc.org/std/sendig-3-0#Assumption.CL.005.001>
  rdf:type cdiscs:Assumption ;
  mms:ordinal "7"^^xsd:positiveInteger ;
  cdiscs:about <http://rdf.cdisc.org/std/sendig-3-0#Column.CL.CLDTC> ;
  cdiscs:about <http://rdf.cdisc.org/std/sendig-3-0#Column.CL.CLDY> ;
  cdiscs:about <http://rdf.cdisc.org/std/sendig-3-0#Column.CL.VISITDY> ;
  cdiscs:assumptionText "a. Information about the time of collection for any observation is needed to identify the record. CLDTC is Expected, and the data will, in most cases, contain CLDTC, CLDY, or both. However, some studies (e.g., legacy studies) may not collect CLDTC or CLDY; in those cases, VISITDY must be populated."^^xsd:string ;
  cdiscs:partOfSection <http://rdf.cdisc.org/std/sendig-3-0#Section.CL.005> ;
.
<http://rdf.cdisc.org/std/sendig-3-0#Assumption.CL.005.002>
  rdf:type cdiscs:Assumption ;
  mms:ordinal "8"^^xsd:positiveInteger ;
  cdiscs:about <http://rdf.cdisc.org/std/sendig-3-0#Column.CL.CLELTM> ;
  cdiscs:about <http://rdf.cdisc.org/std/sendig-3-0#Column.CL.CLTPT> ;
  cdiscs:about <http://rdf.cdisc.org/std/sendig-3-0#Column.CL.CLTPTNUM> ;
  cdiscs:assumptionText "b. CLTPT, CLTPTNUM, and CLELTM can be used when observations are made based on an elapsed time from a reference time point (e.g., 1 hour postdose)."^^xsd:string ;
  cdiscs:partOfSection <http://rdf.cdisc.org/std/sendig-3-0#Section.CL.005> ;
.
<http://rdf.cdisc.org/std/sendig-3-0#Assumption.CL.006.001>
  rdf:type cdiscs:Assumption ;
  mms:ordinal "9"^^xsd:positiveInteger ;
  cdiscs:about <http://rdf.cdisc.org/std/sendig-3-0#Table.CL> ;
  cdiscs:assumptionText "The following variables are not expected to be used in this domain: --LAT, --DIR, --PORTOT, and the supplemental qualifier QNAM --RESMOD."^^xsd:string ;
  cdiscs:partOfSection <http://rdf.cdisc.org/std/sendig-3-0#Section.CL.006> ;
.
<http://rdf.cdisc.org/std/sendig-3-0#Assumption.CO.000.001>
  rdf:type cdiscs:Assumption ;
  mms:ordinal "1"^^xsd:positiveInteger ;
  cdiscs:about <http://rdf.cdisc.org/std/sendig-3-0#Table.CO> ;
  cdiscs:assumptionText "The Comments special-purpose domain provides a solution for submitting free-text comments related to data in one or more SEND domains. Comments are generally not responses to specific questions; instead, comments usually consist of voluntary, free-text, or unsolicited observations."^^xsd:string ;
  cdiscs:partOfSection <http://rdf.cdisc.org/std/sendig-3-0#Section.CO.000> ;
.
<http://rdf.cdisc.org/std/sendig-3-0#Assumption.CO.000.002>
  rdf:type cdiscs:Assumption ;
  mms:ordinal "2"^^xsd:positiveInteger ;
  cdiscs:about <http://rdf.cdisc.org/std/sendig-3-0#Column.CO.RDOMAIN> ;
  cdiscs:about <http://rdf.cdisc.org/std/sendig-3-0#Column.CO.USUBJID> ;
  cdiscs:assumptionText "When RDOMAIN and USUBJID are not populated, then it is assumed that a comment pertains to a study as a whole."^^xsd:string ;
  cdiscs:partOfSection <http://rdf.cdisc.org/std/sendig-3-0#Section.CO.000> ;
.
<http://rdf.cdisc.org/std/sendig-3-0#Assumption.CO.000.003.001>
  rdf:type cdiscs:Assumption ;
  mms:ordinal "3"^^xsd:positiveInteger ;
  cdiscs:about <http://rdf.cdisc.org/std/sendig-3-0#Column.CO.IDVAR> ;
  cdiscs:about <http://rdf.cdisc.org/std/sendig-3-0#Column.CO.IDVARVAL> ;
  cdiscs:about <http://rdf.cdisc.org/std/sendig-3-0#Column.CO.RDOMAIN> ;
  cdiscs:assumptionText "a. Comments related to a specific parent record or group of parent records, in which case the value of the variable RDOMAIN is set to the DOMAIN code of the parent record(s), and the variables IDVAR and IDVARVAL are populated with the key variable name and value of the parent record(s). Assumptions for populating IDVAR and IDVARVAL are further described in Section 8.3."^^xsd:string ;
  cdiscs:partOfSection <http://rdf.cdisc.org/std/sendig-3-0#Section.CO.000> ;
.
<http://rdf.cdisc.org/std/sendig-3-0#Assumption.CO.000.003.002>
  rdf:type cdiscs:Assumption ;
  mms:ordinal "4"^^xsd:positiveInteger ;
  cdiscs:about <http://rdf.cdisc.org/std/sendig-3-0#Column.CO.CODTC> ;
  cdiscs:about <http://rdf.cdisc.org/std/sendig-3-0#Column.CO.IDVAR> ;
  cdiscs:about <http://rdf.cdisc.org/std/sendig-3-0#Column.CO.IDVARVAL> ;
  cdiscs:about <http://rdf.cdisc.org/std/sendig-3-0#Column.CO.RDOMAIN> ;
  cdiscs:assumptionText "b. Comments unrelated to a specific domain or parent record(s), in which case the values of the variables RDOMAIN, IDVAR, and IDVARVAL are null. CODTC should be populated if captured. See example, Rows 8-9."^^xsd:string ;
  cdiscs:partOfSection <http://rdf.cdisc.org/std/sendig-3-0#Section.CO.000> ;
.
<http://rdf.cdisc.org/std/sendig-3-0#Assumption.CO.000.003.003>
  rdf:type cdiscs:Assumption ;
  mms:ordinal "5"^^xsd:positiveInteger ;
  cdiscs:about <http://rdf.cdisc.org/std/sendig-3-0#Column.CO.CODTC> ;
  cdiscs:about <http://rdf.cdisc.org/std/sendig-3-0#Column.CO.IDVAR> ;
  cdiscs:about <http://rdf.cdisc.org/std/sendig-3-0#Column.CO.IDVARVAL> ;
  cdiscs:about <http://rdf.cdisc.org/std/sendig-3-0#Column.CO.RDOMAIN> ;
  cdiscs:about <http://rdf.cdisc.org/std/sendig-3-0#Column.CO.USUBJID> ;
  cdiscs:assumptionText "c. Comments related to a domain but not to specific parent record(s), in which case the value of the variable RDOMAIN is set to the DOMAIN code of the parent domain and the variables USUBJID, IDVAR, and IDVARVAL are null. CODTC should be populated if captured. See example, Row 10."^^xsd:string ;
  cdiscs:partOfSection <http://rdf.cdisc.org/std/sendig-3-0#Section.CO.000> ;
.
<http://rdf.cdisc.org/std/sendig-3-0#Assumption.CO.000.004>
  rdf:type cdiscs:Assumption ;
  mms:ordinal "6"^^xsd:positiveInteger ;
  cdiscs:about <http://rdf.cdisc.org/std/sendig-3-0#Column.CO.COVAL> ;
  cdiscs:assumptionText "When the comment text is longer than 200 characters, the first 200 characters of the comment will be in COVAL, the next 200 in COVAL1, and additional text stored as needed to COVALn. See example, Row 7."^^xsd:string ;
  cdiscs:partOfSection <http://rdf.cdisc.org/std/sendig-3-0#Section.CO.000> ;
.
<http://rdf.cdisc.org/std/sendig-3-0#Assumption.CO.000.005>
  rdf:type cdiscs:Assumption ;
  mms:ordinal "7"^^xsd:positiveInteger ;
  cdiscs:about <http://rdf.cdisc.org/std/sendig-3-0#Column.CO.IDVAR> ;
  cdiscs:about <http://rdf.cdisc.org/std/sendig-3-0#Column.CO.IDVARVAL> ;
  cdiscs:about <http://rdf.cdisc.org/std/sendig-3-0#Column.CO.RDOMAIN> ;
  cdiscs:assumptionText "Additional information about how to relate comments to parent records is provided in Section 8.6."^^xsd:string ;
  cdiscs:partOfSection <http://rdf.cdisc.org/std/sendig-3-0#Section.CO.000> ;
.
<http://rdf.cdisc.org/std/sendig-3-0#Assumption.CO.000.006>
  rdf:type cdiscs:Assumption ;
  mms:ordinal "8"^^xsd:positiveInteger ;
  cdiscs:about <http://rdf.cdisc.org/std/sendig-3-0#Table.CO> ;
  cdiscs:assumptionText "The following Identifier and Timing variables are Permissible and may be added as appropriate when comments are not related to other domain records: COGRPID, COREF, COREFID, COSPID, VISITDY, TAETORD, CODY, COTPT, COTPTNUM, COELTM, COTPTREF, CORFTDTC."^^xsd:string ;
  cdiscs:partOfSection <http://rdf.cdisc.org/std/sendig-3-0#Section.CO.000> ;
.
<http://rdf.cdisc.org/std/sendig-3-0#Assumption.DD.000.001>
  rdf:type cdiscs:Assumption ;
  mms:ordinal "1"^^xsd:positiveInteger ;
  cdiscs:about <http://rdf.cdisc.org/std/sendig-3-0#Table.DD> ;
  cdiscs:assumptionText "The Death Diagnosis domain captures the diagnosis of the cause of death for a subject."^^xsd:string ;
  cdiscs:partOfSection <http://rdf.cdisc.org/std/sendig-3-0#Section.DD.000> ;
.
<http://rdf.cdisc.org/std/sendig-3-0#Assumption.DD.000.002>
  rdf:type cdiscs:Assumption ;
  mms:ordinal "2"^^xsd:positiveInteger ;
  cdiscs:about <http://rdf.cdisc.org/std/sendig-3-0#Table.DD> ;
  cdiscs:assumptionText "No records will be present for subjects where a cause of death was not collected. This domain should only be utilized for subjects with an unscheduled death.  This may include moribund animals, animals found dead, accidental death, etc."^^xsd:string ;
  cdiscs:partOfSection <http://rdf.cdisc.org/std/sendig-3-0#Section.DD.000> ;
.
<http://rdf.cdisc.org/std/sendig-3-0#Assumption.DD.000.003>
  rdf:type cdiscs:Assumption ;
  mms:ordinal "3"^^xsd:positiveInteger ;
  cdiscs:about <http://rdf.cdisc.org/std/sendig-3-0#Table.DD> ;
  cdiscs:assumptionText "This domain will not include findings of \"planned sacrifice\" or other scheduled reasons for termination."^^xsd:string ;
  cdiscs:partOfSection <http://rdf.cdisc.org/std/sendig-3-0#Section.DD.000> ;
.
<http://rdf.cdisc.org/std/sendig-3-0#Assumption.DD.000.004>
  rdf:type cdiscs:Assumption ;
  mms:ordinal "4"^^xsd:positiveInteger ;
  cdiscs:about <http://rdf.cdisc.org/std/sendig-3-0#Table.DD> ;
  cdiscs:assumptionText "The information in this domain may duplicate \"death relationship\" information in other domains. The cause of death will be explicitly presented here if available, even when a --DTHREL implies cause of death in another domain."^^xsd:string ;
  cdiscs:partOfSection <http://rdf.cdisc.org/std/sendig-3-0#Section.DD.000> ;
.
<http://rdf.cdisc.org/std/sendig-3-0#Assumption.DM.001.001>
  rdf:type cdiscs:Assumption ;
  mms:ordinal "1"^^xsd:positiveInteger ;
  cdiscs:about <http://rdf.cdisc.org/std/sendig-3-0#Column.DM.SUBJID> ;
  cdiscs:about <http://rdf.cdisc.org/std/sendig-3-0#Column.DM.USUBJID> ;
  cdiscs:assumptionText "Subject identification: It is presumed that every subject (i.e., animal) in a study will have a subject identifier (SUBJID). In some cases, a subject may be included in more than one study within a submission, and more commonly, subjects from different studies may have the same subject identifier. To identify a subject uniquely across a submission, a unique identifier (USUBJID) should be assigned and included in all subject-related datasets in the submission."^^xsd:string ;
  cdiscs:partOfSection <http://rdf.cdisc.org/std/sendig-3-0#Section.DM.001> ;
.
<http://rdf.cdisc.org/std/sendig-3-0#Assumption.DM.002.001>
  rdf:type cdiscs:Assumption ;
  mms:ordinal "2"^^xsd:positiveInteger ;
  cdiscs:about <http://rdf.cdisc.org/std/sendig-3-0#Column.DM.ARM> ;
  cdiscs:about <http://rdf.cdisc.org/std/sendig-3-0#Column.DM.ARMCD> ;
  cdiscs:about <http://rdf.cdisc.org/std/sendig-3-0#Table.SE> ;
  cdiscs:assumptionText "Arm/treatment identification: When a sponsor is submitting study design information, the values of ARMCD and ARM should be identical to the values defined for that subject in the Subject Elements (SE) dataset. The assignment of values should be consistent, if possible, within a submission."^^xsd:string ;
  cdiscs:partOfSection <http://rdf.cdisc.org/std/sendig-3-0#Section.DM.002> ;
.
<http://rdf.cdisc.org/std/sendig-3-0#Assumption.DM.003.001>
  rdf:type cdiscs:Assumption ;
  mms:ordinal "3"^^xsd:positiveInteger ;
  cdiscs:about <http://rdf.cdisc.org/std/sendig-3-0#Table.SC> ;
  cdiscs:about <http://rdf.cdisc.org/std/sendig-3-0#Table.TX> ;
  cdiscs:assumptionText "When additional information is reported about the subjects, sponsors should place this information in the Subject Characteristics (SC) domain, adding the specific variable as a value in SCTEST. Study design information that does not vary on an individual subject level should be placed in the Trial Sets table (TX)."^^xsd:string ;
  cdiscs:partOfSection <http://rdf.cdisc.org/std/sendig-3-0#Section.DM.003> ;
.
<http://rdf.cdisc.org/std/sendig-3-0#Assumption.DM.004.001>
  rdf:type cdiscs:Assumption ;
  mms:ordinal "4"^^xsd:positiveInteger ;
  cdiscs:about <http://rdf.cdisc.org/std/sendig-3-0#Column.DM.AGE> ;
  cdiscs:about <http://rdf.cdisc.org/std/sendig-3-0#Column.DM.AGETXT> ;
  cdiscs:assumptionText "a. AGE and AGETXT should never both be populated for the same subject. AGEU refers to whichever variable is used."^^xsd:string ;
  cdiscs:partOfSection <http://rdf.cdisc.org/std/sendig-3-0#Section.DM.004> ;
.
<http://rdf.cdisc.org/std/sendig-3-0#Assumption.DM.004.002>
  rdf:type cdiscs:Assumption ;
  mms:ordinal "5"^^xsd:positiveInteger ;
  cdiscs:about <http://rdf.cdisc.org/std/sendig-3-0#Column.DM.BRTHDTC> ;
  cdiscs:assumptionText "b. If information is available about the time of birth for the subject, it should be presented in the variable BRTHDTC in ISO 8601 format, even if this is only partial information (not a complete date of birth). Please see (Section 4.4.2) on how to represent date/time precision in ISO 8601."^^xsd:string ;
  cdiscs:partOfSection <http://rdf.cdisc.org/std/sendig-3-0#Section.DM.004> ;
.
<http://rdf.cdisc.org/std/sendig-3-0#Assumption.DM.004.003>
  rdf:type cdiscs:Assumption ;
  mms:ordinal "6"^^xsd:positiveInteger ;
  cdiscs:about <http://rdf.cdisc.org/std/sendig-3-0#Column.DM.BRTHDTC> ;
  cdiscs:assumptionText "c. Data in BRTHDTC should never be derived from another variable. Either this information is collected or this variable should be blank."^^xsd:string ;
  cdiscs:partOfSection <http://rdf.cdisc.org/std/sendig-3-0#Section.DM.004> ;
.
<http://rdf.cdisc.org/std/sendig-3-0#Assumption.DM.004.004>
  rdf:type cdiscs:Assumption ;
  mms:ordinal "7"^^xsd:positiveInteger ;
  cdiscs:about <http://rdf.cdisc.org/std/sendig-3-0#Column.DM.AGE> ;
  cdiscs:about <http://rdf.cdisc.org/std/sendig-3-0#Column.DM.AGEU> ;
  cdiscs:assumptionText "d. If a specific age for the subject is known, but no information regarding date/time of birth is available, then AGE and AGEU should be populated, using the most descriptive/accurate unit for the data (e.g., 1 year, 2 months would be: AGE = \"14\" and AGEU = \"MONTHS\")."^^xsd:string ;
  cdiscs:partOfSection <http://rdf.cdisc.org/std/sendig-3-0#Section.DM.004> ;
.
<http://rdf.cdisc.org/std/sendig-3-0#Assumption.DM.004.005>
  rdf:type cdiscs:Assumption ;
  mms:ordinal "8"^^xsd:positiveInteger ;
  cdiscs:about <http://rdf.cdisc.org/std/sendig-3-0#Column.DM.AGE> ;
  cdiscs:about <http://rdf.cdisc.org/std/sendig-3-0#Column.DM.AGEU> ;
  cdiscs:assumptionText "e. Sponsors may choose to derive AGE and AGEU using an algorithm involving BRTHDTC and RFSTDTC. Sponsors should indicate how AGE was populated in the define file comments."^^xsd:string ;
  cdiscs:partOfSection <http://rdf.cdisc.org/std/sendig-3-0#Section.DM.004> ;
.
<http://rdf.cdisc.org/std/sendig-3-0#Assumption.DM.004.006>
  rdf:type cdiscs:Assumption ;
  mms:ordinal "9"^^xsd:positiveInteger ;
  cdiscs:about <http://rdf.cdisc.org/std/sendig-3-0#Column.DM.AGETXT> ;
  cdiscs:about <http://rdf.cdisc.org/std/sendig-3-0#Column.DM.AGEU> ;
  cdiscs:assumptionText "f. If only an approximate age is known (e.g., 6-8 weeks), then use AGETXT in if only an approximate age is known (e.g., 6-8 weeks), then use AGETXT in conjunction with AGEU (e.g., AGETXT= \"6-8\" and AGEU = \"WEEKS\"). The format for AGETXT is \"number-number\" (e.g., \"6-8\")."^^xsd:string ;
  cdiscs:partOfSection <http://rdf.cdisc.org/std/sendig-3-0#Section.DM.004> ;
.
<http://rdf.cdisc.org/std/sendig-3-0#Assumption.DM.005.001>
  rdf:type cdiscs:Assumption ;
  mms:ordinal "10"^^xsd:positiveInteger ;
  cdiscs:about <http://rdf.cdisc.org/std/sendig-3-0#Column.DM.BRTHDTC> ;
  cdiscs:about <http://rdf.cdisc.org/std/sendig-3-0#Column.DM.RFENDTC> ;
  cdiscs:about <http://rdf.cdisc.org/std/sendig-3-0#Column.DM.RFSTDTC> ;
  cdiscs:assumptionText "RFSTDTC, RFENDTC, and BRTHDTC represent date/time values, but they are considered to have a Record Qualifier role in DM. They are not considered to be Timing Variables as described in SDTM Section 2.2.6 because they are not intended for use in the general observation classes. The subject may have records in other domains with a date/time prior to RFSTDTC and after the RFENDTC."^^xsd:string ;
  cdiscs:partOfSection <http://rdf.cdisc.org/std/sendig-3-0#Section.DM.005> ;
.
<http://rdf.cdisc.org/std/sendig-3-0#Assumption.DM.006.001>
  rdf:type cdiscs:Assumption ;
  mms:ordinal "11"^^xsd:positiveInteger ;
  cdiscs:about <http://rdf.cdisc.org/std/sendig-3-0#Column.DM.SPECIES> ;
  cdiscs:about <http://rdf.cdisc.org/std/sendig-3-0#Column.DM.STRAIN> ;
  cdiscs:about <http://rdf.cdisc.org/std/sendig-3-0#Table.TS> ;
  cdiscs:assumptionText "SPECIES and STRAIN are Permissible and should only be used in the event that different species or strains are used during one study. If all the subjects in one study are of the same species, strain, and substrain, then this information is collected in the Trial Summary (TS) table."^^xsd:string ;
  cdiscs:partOfSection <http://rdf.cdisc.org/std/sendig-3-0#Section.DM.006> ;
.
<http://rdf.cdisc.org/std/sendig-3-0#Assumption.DM.007.001>
  rdf:type cdiscs:Assumption ;
  mms:ordinal "12"^^xsd:positiveInteger ;
  cdiscs:about <http://rdf.cdisc.org/std/sendig-3-0#Column.DM.SETCD> ;
  cdiscs:assumptionText "The SETCD variable is to be used by the sponsor to uniquely identify all distinct \"groups\" or \"Trial Sets.\" Trial Set is a collection of subjects that have a common set of parameters defined in the protocol, where those parameters include experimental parameters, treatment strategies, inherent characteristics (such as strain) parameters, and/or sponsor-defined attributes (such as control group designation). In general, if a distinction between Arms does not cause the subjects to be summarized or grouped independently, then it should not be reflected as a separate Trial Set. A subject (animal) may belong to one and only one Trial Set. For further explanation on SETCD, please see Section 7.4."^^xsd:string ;
  cdiscs:partOfSection <http://rdf.cdisc.org/std/sendig-3-0#Section.DM.007> ;
.
<http://rdf.cdisc.org/std/sendig-3-0#Assumption.DM.008.001>
  rdf:type cdiscs:Assumption ;
  mms:ordinal "13"^^xsd:positiveInteger ;
  cdiscs:about <http://rdf.cdisc.org/std/sendig-3-0#Column.DM.ARM> ;
  cdiscs:about <http://rdf.cdisc.org/std/sendig-3-0#Column.DM.SETCD> ;
  cdiscs:assumptionText "An Arm is a planned path through the study. This path covers the entire time of the study. The group of subjects assigned to an Arm is also often colloquially called an Arm. The group of subjects assigned to an Arm is also often called a treatment group but is not necessarily a treatment group. The same Arm can be used to separate animals into different satellites. For example, use SETCD for assigning main study animals and TK study animals. See Section 7.4 for further details."^^xsd:string ;
  cdiscs:partOfSection <http://rdf.cdisc.org/std/sendig-3-0#Section.DM.008> ;
.
<http://rdf.cdisc.org/std/sendig-3-0#Assumption.DS.001.001>
  rdf:type cdiscs:Assumption ;
  mms:ordinal "1"^^xsd:positiveInteger ;
  cdiscs:about <http://rdf.cdisc.org/std/sendig-3-0#Table.DS> ;
  cdiscs:assumptionText "a. The disposition dataset provides a record for the disposition of subjects throughout the study. One record will be created for each subject used in the study, whether it ultimately died or was removed from the study."^^xsd:string ;
  cdiscs:partOfSection <http://rdf.cdisc.org/std/sendig-3-0#Section.DS.001> ;
.
<http://rdf.cdisc.org/std/sendig-3-0#Assumption.DS.001.002>
  rdf:type cdiscs:Assumption ;
  mms:ordinal "2"^^xsd:positiveInteger ;
  cdiscs:about <http://rdf.cdisc.org/std/sendig-3-0#Table.DS> ;
  cdiscs:assumptionText "b. Disposition records are required for carcinogenicity studies to support the creation of the tumor.xpt."^^xsd:string ;
  cdiscs:partOfSection <http://rdf.cdisc.org/std/sendig-3-0#Section.DS.001> ;
.
<http://rdf.cdisc.org/std/sendig-3-0#Assumption.DS.001.003>
  rdf:type cdiscs:Assumption ;
  mms:ordinal "3"^^xsd:positiveInteger ;
  cdiscs:about <http://rdf.cdisc.org/std/sendig-3-0#Column.DS.DSDECOD> ;
  cdiscs:assumptionText "c. The DSDECOD values of MISSING, REMOVED FROM STUDY ALIVE, and RECOVERY SACRIFICE do not map to the DTHSACST variable of the tumor.xpt (see Appendix C, Table 2)."^^xsd:string ;
  cdiscs:partOfSection <http://rdf.cdisc.org/std/sendig-3-0#Section.DS.001> ;
.
<http://rdf.cdisc.org/std/sendig-3-0#Assumption.DS.002.001>
  rdf:type cdiscs:Assumption ;
  mms:ordinal "4"^^xsd:positiveInteger ;
  cdiscs:about <http://rdf.cdisc.org/std/sendig-3-0#Column.DS.DSDECOD> ;
  cdiscs:about <http://rdf.cdisc.org/std/sendig-3-0#Column.DS.DSTERM> ;
  cdiscs:assumptionText "DSTERM is not under controlled terminology, but should be mapped to DSDECOD."^^xsd:string ;
  cdiscs:partOfSection <http://rdf.cdisc.org/std/sendig-3-0#Section.DS.002> ;
.
<http://rdf.cdisc.org/std/sendig-3-0#Assumption.DS.003.001>
  rdf:type cdiscs:Assumption ;
  mms:ordinal "5"^^xsd:positiveInteger ;
  cdiscs:about <http://rdf.cdisc.org/std/sendig-3-0#Column.DS.DSSTDTC> ;
  cdiscs:assumptionText "a. DSSTDTC is used for the date/time of the disposition event. Disposition events do not have end dates since disposition events do not span an interval but occur at a single date/time (e.g., date of terminal sacrifice)."^^xsd:string ;
  cdiscs:partOfSection <http://rdf.cdisc.org/std/sendig-3-0#Section.DS.003> ;
.
<http://rdf.cdisc.org/std/sendig-3-0#Assumption.DS.003.002>
  rdf:type cdiscs:Assumption ;
  mms:ordinal "6"^^xsd:positiveInteger ;
  cdiscs:about <http://rdf.cdisc.org/std/sendig-3-0#Column.DS.DSDECOD> ;
  cdiscs:about <http://rdf.cdisc.org/std/sendig-3-0#Column.DS.DSTERM> ;
  cdiscs:about <http://rdf.cdisc.org/std/sendig-3-0#Column.DS.VISITDY> ;
  cdiscs:assumptionText "b. VISITDY can be used to signify the planned study day of the disposition from the reference start date (e.g., the planned study day of sacrifice). The reference start date is specified by the sponsor and should be recorded in RFSTDTC in the Demographics Domain. VISITDY should only be populated when DSTERM can be mapped to a DSDECOD value of \"Terminal sacrifice,\" \"Planned interim sacrifice,\" \"RECOVERY SACRIFICE,\" or \"Removed from study alive.\""^^xsd:string ;
  cdiscs:partOfSection <http://rdf.cdisc.org/std/sendig-3-0#Section.DS.003> ;
.
<http://rdf.cdisc.org/std/sendig-3-0#Assumption.EG.000.001>
  rdf:type cdiscs:Assumption ;
  mms:ordinal "1"^^xsd:positiveInteger ;
  cdiscs:about <http://rdf.cdisc.org/std/sendig-3-0#Table.EG> ;
  cdiscs:assumptionText "The ECG Test Results domain captures electrocardiographic (ECG) specific parameters."^^xsd:string ;
  cdiscs:partOfSection <http://rdf.cdisc.org/std/sendig-3-0#Section.EG.000> ;
.
<http://rdf.cdisc.org/std/sendig-3-0#Assumption.EG.000.002>
  rdf:type cdiscs:Assumption ;
  mms:ordinal "2"^^xsd:positiveInteger ;
  cdiscs:about <http://rdf.cdisc.org/std/sendig-3-0#Column.EG.EGCSTATE> ;
  cdiscs:about <http://rdf.cdisc.org/std/sendig-3-0#Column.EG.EGLEAD> ;
  cdiscs:about <http://rdf.cdisc.org/std/sendig-3-0#Column.EG.EGMETHOD> ;
  cdiscs:about <http://rdf.cdisc.org/std/sendig-3-0#Column.EG.EGPOS> ;
  cdiscs:assumptionText "EGPOS, EGLEAD, EGMETHOD, and EGCSTATE are considered important for comparison purposes and should be populated whenever available or collected."^^xsd:string ;
  cdiscs:partOfSection <http://rdf.cdisc.org/std/sendig-3-0#Section.EG.000> ;
.
<http://rdf.cdisc.org/std/sendig-3-0#Assumption.EG.000.003>
  rdf:type cdiscs:Assumption ;
  mms:ordinal "3"^^xsd:positiveInteger ;
  cdiscs:about <http://rdf.cdisc.org/std/sendig-3-0#Table.EG> ;
  cdiscs:assumptionText "The following Qualifiers would not generally be used in EG: --MODIFY, --BODSYS, --SPEC, --SPCCND, --FAST, --SEV. It is recommended that --LOINC not be used."^^xsd:string ;
  cdiscs:partOfSection <http://rdf.cdisc.org/std/sendig-3-0#Section.EG.000> ;
.
<http://rdf.cdisc.org/std/sendig-3-0#Assumption.EG.000.004>
  rdf:type cdiscs:Assumption ;
  mms:ordinal "4"^^xsd:positiveInteger ;
  cdiscs:about <http://rdf.cdisc.org/std/sendig-3-0#Column.EG.EGDTC> ;
  cdiscs:about <http://rdf.cdisc.org/std/sendig-3-0#Column.EG.EGENDTC> ;
  cdiscs:assumptionText "EGDTC and EGENDTC variables, if applicable, are used as described in Section 4.4.6."^^xsd:string ;
  cdiscs:partOfSection <http://rdf.cdisc.org/std/sendig-3-0#Section.EG.000> ;
.
<http://rdf.cdisc.org/std/sendig-3-0#Assumption.EX.001.001>
  rdf:type cdiscs:Assumption ;
  mms:ordinal "1"^^xsd:positiveInteger ;
  cdiscs:about <http://rdf.cdisc.org/std/sendig-3-0#Table.EX> ;
  cdiscs:assumptionText "a. The Exposure Domain Model records the details of a subject's administered dose of protocol-specified study treatment. Study treatment may be any intervention that is prospectively defined as a test material within a study, and is typically, but not always, administered to the subject. Examples include, but are not limited to, placebo, active comparators, and investigational products. Only protocol-specified treatments should be included in this domain."^^xsd:string ;
  cdiscs:partOfSection <http://rdf.cdisc.org/std/sendig-3-0#Section.EX.001> ;
.
<http://rdf.cdisc.org/std/sendig-3-0#Assumption.EX.001.002>
  rdf:type cdiscs:Assumption ;
  mms:ordinal "2"^^xsd:positiveInteger ;
  cdiscs:about <http://rdf.cdisc.org/std/sendig-3-0#Table.EX> ;
  cdiscs:assumptionText "b. This domain should contain one record per constant dosing interval per subject. A constant dosing interval is sponsor-defined and represents a specific period of time during which an animal was treated with a specific lot at a constant dose level. For example, for a study with once-a-week administration of a standard dose for 6 weeks, the administered dose may be represented with a single record per subject spanning the entire treatment phase. Alternatively, a separate entry can be made for each treatment administration and any deviations in treatment that occur. For this example there could be up to six records (one for each weekly administration)."^^xsd:string ;
  cdiscs:partOfSection <http://rdf.cdisc.org/std/sendig-3-0#Section.EX.001> ;
.
<http://rdf.cdisc.org/std/sendig-3-0#Assumption.EX.001.003>
  rdf:type cdiscs:Assumption ;
  mms:ordinal "3"^^xsd:positiveInteger ;
  cdiscs:about <http://rdf.cdisc.org/std/sendig-3-0#Column.EX.POOLID> ;
  cdiscs:about <http://rdf.cdisc.org/std/sendig-3-0#Column.EX.USUBJID> ;
  cdiscs:assumptionText "c. Either USUBJID or POOLID must be populated."^^xsd:string ;
  cdiscs:partOfSection <http://rdf.cdisc.org/std/sendig-3-0#Section.EX.001> ;
.
<http://rdf.cdisc.org/std/sendig-3-0#Assumption.EX.002.001>
  rdf:type cdiscs:Assumption ;
  mms:ordinal "4"^^xsd:positiveInteger ;
  cdiscs:about <http://rdf.cdisc.org/std/sendig-3-0#Column.EX.EXTRT> ;
  cdiscs:assumptionText """EXTRT captures the name of the administered treatment. Because EXTRT is the topic variable, it is Required and must have a
value. EXTRT should only include the treatment name and should not include dosage, formulation, or other qualifying information. For example, \"ASPIRIN 100 mg TABLET\" is not a valid value for EXTRT. This example should be expressed as EXTRT= \"ASPIRIN\", EXDOSE= \"100\", EXDOSU= \"mg\", and EXDOSFRM= \"TABLET\"."""^^xsd:string ;
  cdiscs:partOfSection <http://rdf.cdisc.org/std/sendig-3-0#Section.EX.002> ;
.
<http://rdf.cdisc.org/std/sendig-3-0#Assumption.EX.003.001>
  rdf:type cdiscs:Assumption ;
  mms:ordinal "5"^^xsd:positiveInteger ;
  cdiscs:about <http://rdf.cdisc.org/std/sendig-3-0#Column.EX.EXLOT> ;
  cdiscs:assumptionText "If a subject is treated sequentially with different lots, then a new record must be created for each lot number given."^^xsd:string ;
  cdiscs:partOfSection <http://rdf.cdisc.org/std/sendig-3-0#Section.EX.003> ;
.
<http://rdf.cdisc.org/std/sendig-3-0#Assumption.EX.004.001>
  rdf:type cdiscs:Assumption ;
  mms:ordinal "6"^^xsd:positiveInteger ;
  cdiscs:about <http://rdf.cdisc.org/std/sendig-3-0#Column.EX.EXDOSE> ;
  cdiscs:assumptionText "The sponsor's data definition file should indicate whether the values in EXDOSE represent intended or actual dose levels."^^xsd:string ;
  cdiscs:partOfSection <http://rdf.cdisc.org/std/sendig-3-0#Section.EX.004> ;
.
<http://rdf.cdisc.org/std/sendig-3-0#Assumption.EX.005.001>
  rdf:type cdiscs:Assumption ;
  mms:ordinal "7"^^xsd:positiveInteger ;
  cdiscs:about <http://rdf.cdisc.org/std/sendig-3-0#Column.EX.EXENDTC> ;
  cdiscs:about <http://rdf.cdisc.org/std/sendig-3-0#Column.EX.EXSTDTC> ;
  cdiscs:assumptionText "The timing of dosing of study treatment is captured by the start/end date and start/end time of each constant-dosing interval. The dosing interval is defined by the sponsor."^^xsd:string ;
  cdiscs:partOfSection <http://rdf.cdisc.org/std/sendig-3-0#Section.EX.005> ;
.
<http://rdf.cdisc.org/std/sendig-3-0#Assumption.EX.006.001>
  rdf:type cdiscs:Assumption ;
  mms:ordinal "8"^^xsd:positiveInteger ;
  cdiscs:about <http://rdf.cdisc.org/std/sendig-3-0#Table.EX> ;
  cdiscs:assumptionText "a. The variables --PRESP, --OCCUR, --STAT, and --REASND from the Interventions general observation class would not generally be used in the EX domain because EX should only contain treatments received."^^xsd:string ;
  cdiscs:partOfSection <http://rdf.cdisc.org/std/sendig-3-0#Section.EX.006> ;
.
<http://rdf.cdisc.org/std/sendig-3-0#Assumption.EX.006.002>
  rdf:type cdiscs:Assumption ;
  mms:ordinal "9"^^xsd:positiveInteger ;
  cdiscs:about <http://rdf.cdisc.org/std/sendig-3-0#Table.EX> ;
  cdiscs:assumptionText "b. Other additional Qualifiers (not previously mentioned) from the SDTM Interventions Class may be added to this domain."^^xsd:string ;
  cdiscs:partOfSection <http://rdf.cdisc.org/std/sendig-3-0#Section.EX.006> ;
.
<http://rdf.cdisc.org/std/sendig-3-0#Assumption.FW.000.001>
  rdf:type cdiscs:Assumption ;
  mms:ordinal "1"^^xsd:positiveInteger ;
  cdiscs:about <http://rdf.cdisc.org/std/sendig-3-0#Table.FW> ;
  cdiscs:assumptionText "The Food and Water Consumption domain captures food/water consumption of animals in the study. The data in this domain is derived data."^^xsd:string ;
  cdiscs:partOfSection <http://rdf.cdisc.org/std/sendig-3-0#Section.FW.000> ;
.
<http://rdf.cdisc.org/std/sendig-3-0#Assumption.FW.000.002>
  rdf:type cdiscs:Assumption ;
  mms:ordinal "2"^^xsd:positiveInteger ;
  cdiscs:about <http://rdf.cdisc.org/std/sendig-3-0#Column.FW.POOLID> ;
  cdiscs:assumptionText "POOLID is used when a single finding may be captured for multiple subjects using POOLID (e.g., group-housed subjects)."^^xsd:string ;
  cdiscs:partOfSection <http://rdf.cdisc.org/std/sendig-3-0#Section.FW.000> ;
.
<http://rdf.cdisc.org/std/sendig-3-0#Assumption.FW.000.003>
  rdf:type cdiscs:Assumption ;
  mms:ordinal "3"^^xsd:positiveInteger ;
  cdiscs:about <http://rdf.cdisc.org/std/sendig-3-0#Column.FW.FWSTRESU> ;
  cdiscs:assumptionText "The reported results may be in units defined per cage or per subject, and the corresponding FWSTRESU must reflect whether the reported result is per subject or per cage."^^xsd:string ;
  cdiscs:partOfSection <http://rdf.cdisc.org/std/sendig-3-0#Section.FW.000> ;
.
<http://rdf.cdisc.org/std/sendig-3-0#Assumption.FW.000.004>
  rdf:type cdiscs:Assumption ;
  mms:ordinal "4"^^xsd:positiveInteger ;
  cdiscs:about <http://rdf.cdisc.org/std/sendig-3-0#Column.FW.FWSTRESC> ;
  cdiscs:about <http://rdf.cdisc.org/std/sendig-3-0#Column.FW.FWSTRESN> ;
  cdiscs:assumptionText "The FWSTRESC and FWSTRESN must have the appropriate units when they represent a calculation: */animal/* --- (e.g., g/animal/day or g/animal/week or kg/animal/day or kg/animal/week)."^^xsd:string ;
  cdiscs:partOfSection <http://rdf.cdisc.org/std/sendig-3-0#Section.FW.000> ;
.
<http://rdf.cdisc.org/std/sendig-3-0#Assumption.FW.000.005>
  rdf:type cdiscs:Assumption ;
  mms:ordinal "5"^^xsd:positiveInteger ;
  cdiscs:about <http://rdf.cdisc.org/std/sendig-3-0#Column.FW.FWDTC> ;
  cdiscs:about <http://rdf.cdisc.org/std/sendig-3-0#Column.FW.FWENDTC> ;
  cdiscs:assumptionText "FWDTC and FWENDTC variables, if applicable, are used as described in Section 4.4.6."^^xsd:string ;
  cdiscs:partOfSection <http://rdf.cdisc.org/std/sendig-3-0#Section.FW.000> ;
.
<http://rdf.cdisc.org/std/sendig-3-0#Assumption.LB.001.001>
  rdf:type cdiscs:Assumption ;
  mms:ordinal "1"^^xsd:positiveInteger ;
  cdiscs:assumptionText "The Laboratory Test Results captures laboratory data collected by the lab executing the study or received from a central provider."^^xsd:string ;
  cdiscs:partOfSection <http://rdf.cdisc.org/std/sendig-3-0#Section.LB.001> ;
.
<http://rdf.cdisc.org/std/sendig-3-0#Assumption.LB.002.001>
  rdf:type cdiscs:Assumption ;
  mms:ordinal "2"^^xsd:positiveInteger ;
  cdiscs:about <http://rdf.cdisc.org/std/sendig-3-0#Column.LB.LBSTRESC> ;
  cdiscs:about <http://rdf.cdisc.org/std/sendig-3-0#Column.LB.LBSTRESN> ;
  cdiscs:about <http://rdf.cdisc.org/std/sendig-3-0#Column.LB.LBSTRESU> ;
  cdiscs:assumptionText "a. LBSTRESC (or corresponding numeric LBSTRESN) may be used to represent standardized format of original results. For instance results such as \"NEG\" or \"NEGATIVE\" may be represented in standard format as \"NEGATIVE\" in LBSTRESC. The LBSTRESC, LBSTRESN, and LBSTRESU should preferably be reported in SI units whenever possible."^^xsd:string ;
  cdiscs:partOfSection <http://rdf.cdisc.org/std/sendig-3-0#Section.LB.002> ;
.
<http://rdf.cdisc.org/std/sendig-3-0#Assumption.LB.002.002>
  rdf:type cdiscs:Assumption ;
  mms:ordinal "3"^^xsd:positiveInteger ;
  cdiscs:about <http://rdf.cdisc.org/std/sendig-3-0#Column.LB.LBORNRHI> ;
  cdiscs:about <http://rdf.cdisc.org/std/sendig-3-0#Column.LB.LBORNRLO> ;
  cdiscs:about <http://rdf.cdisc.org/std/sendig-3-0#Column.LB.LBSTNRHI> ;
  cdiscs:about <http://rdf.cdisc.org/std/sendig-3-0#Column.LB.LBSTNRLO> ;
  cdiscs:assumptionText "b. LBORNRLO and LBORNRHI for reference range in original units and LBSTNRLO and LBSTNRHI for reference range in standard units are Permissible as many tests may not have well-established ranges or ranges would not apply."^^xsd:string ;
  cdiscs:partOfSection <http://rdf.cdisc.org/std/sendig-3-0#Section.LB.002> ;
.
<http://rdf.cdisc.org/std/sendig-3-0#Assumption.LB.002.003>
  rdf:type cdiscs:Assumption ;
  mms:ordinal "4"^^xsd:positiveInteger ;
  cdiscs:about <http://rdf.cdisc.org/std/sendig-3-0#Column.LB.LBSTNRC> ;
  cdiscs:assumptionText "c. For lab tests that do not have continuous numeric results (e.g., urine protein as measured by dipstick, descriptive tests such as urine color), LBSTNRC could be populated either with normal range values that are character in an ordinal scale (e.g., \"NEGATIVE to TRACE\") or a delimited set of values that are considered to be normal (e.g., \"YELLOW\"; \"AMBER\")."^^xsd:string ;
  cdiscs:partOfSection <http://rdf.cdisc.org/std/sendig-3-0#Section.LB.002> ;
.
<http://rdf.cdisc.org/std/sendig-3-0#Assumption.LB.002.004>
  rdf:type cdiscs:Assumption ;
  mms:ordinal "5"^^xsd:positiveInteger ;
  cdiscs:about <http://rdf.cdisc.org/std/sendig-3-0#Column.LB.LBORRES> ;
  cdiscs:about <http://rdf.cdisc.org/std/sendig-3-0#Column.LB.LBREASND> ;
  cdiscs:about <http://rdf.cdisc.org/std/sendig-3-0#Column.LB.LBSTAT> ;
  cdiscs:about <http://rdf.cdisc.org/std/sendig-3-0#Column.LB.LBSTRESC> ;
  cdiscs:about <http://rdf.cdisc.org/std/sendig-3-0#Column.LB.LBSTRESN> ;
  cdiscs:assumptionText "d. LBSTAT and LBREASND are Permissible and used to indicate when a test was not completed. In these cases LBSTAT should contain \"NOT DONE\"; LBORRES, LBSTRESC, and LBSTRESN should be null; and LBREASND should contain the reason for not completing the test."^^xsd:string ;
  cdiscs:partOfSection <http://rdf.cdisc.org/std/sendig-3-0#Section.LB.002> ;
.
<http://rdf.cdisc.org/std/sendig-3-0#Assumption.LB.003.001>
  rdf:type cdiscs:Assumption ;
  mms:ordinal "6"^^xsd:positiveInteger ;
  cdiscs:about <http://rdf.cdisc.org/std/sendig-3-0#Column.LB.LBANTREG> ;
  cdiscs:about <http://rdf.cdisc.org/std/sendig-3-0#Column.LB.LBLOC> ;
  cdiscs:about <http://rdf.cdisc.org/std/sendig-3-0#Column.LB.LBSPEC> ;
  cdiscs:assumptionText "a. The location of specimen collection for a subject is described by the following fields: LBSPEC, LBANTREG, and LBLOC."^^xsd:string ;
  cdiscs:partOfSection <http://rdf.cdisc.org/std/sendig-3-0#Section.LB.003> ;
.
<http://rdf.cdisc.org/std/sendig-3-0#Assumption.LB.003.002>
  rdf:type cdiscs:Assumption ;
  mms:ordinal "7"^^xsd:positiveInteger ;
  cdiscs:about <http://rdf.cdisc.org/std/sendig-3-0#Column.LB.LBSPEC> ;
  cdiscs:assumptionText "b. LBSPEC is Expected and defines the specimen type or the base organ or tissue involved."^^xsd:string ;
  cdiscs:partOfSection <http://rdf.cdisc.org/std/sendig-3-0#Section.LB.003> ;
.
<http://rdf.cdisc.org/std/sendig-3-0#Assumption.LB.003.003>
  rdf:type cdiscs:Assumption ;
  mms:ordinal "8"^^xsd:positiveInteger ;
  cdiscs:about <http://rdf.cdisc.org/std/sendig-3-0#Column.LB.LBANTREG> ;
  cdiscs:about <http://rdf.cdisc.org/std/sendig-3-0#Column.LB.LBSPEC> ;
  cdiscs:assumptionText "c. LBANTREG is Permissible and further specifies a part or section of the organ/tissue specified in LBSPEC. Examples include the cortex of the kidney or a study-specific sectioning of the organ (e.g., top section of left liver lobe)."^^xsd:string ;
  cdiscs:partOfSection <http://rdf.cdisc.org/std/sendig-3-0#Section.LB.003> ;
.
<http://rdf.cdisc.org/std/sendig-3-0#Assumption.LB.003.004>
  rdf:type cdiscs:Assumption ;
  mms:ordinal "9"^^xsd:positiveInteger ;
  cdiscs:about <http://rdf.cdisc.org/std/sendig-3-0#Column.LB.LBLOC> ;
  cdiscs:about <http://rdf.cdisc.org/std/sendig-3-0#Column.LB.LBSPEC> ;
  cdiscs:assumptionText "d. LBLOC is Permissible to specify location of specimen collection. If a sample of blood is taken, LBLOC may be used to indicate the location of sampling (e.g., jugular vein or portal vein). Another example could be if the specimen type (LBSPEC) is \"BONE MARROW\", then LBLOC could be \"Femoral\" or \"Sternal\"."^^xsd:string ;
  cdiscs:partOfSection <http://rdf.cdisc.org/std/sendig-3-0#Section.LB.003> ;
.
<http://rdf.cdisc.org/std/sendig-3-0#Assumption.LB.004.001>
  rdf:type cdiscs:Assumption ;
  mms:ordinal "10"^^xsd:positiveInteger ;
  cdiscs:about <http://rdf.cdisc.org/std/sendig-3-0#Column.LB.LBDTC> ;
  cdiscs:about <http://rdf.cdisc.org/std/sendig-3-0#Column.LB.LBDY> ;
  cdiscs:about <http://rdf.cdisc.org/std/sendig-3-0#Column.LB.VISITDY> ;
  cdiscs:assumptionText "a. Information about the time of collection for any observation is needed to identify the record. LBDTC is Expected, and the data will, in most cases, contain LBDTC, LBDY, or both. However, some studies (e.g., legacy studies) may not collect LBDTC or LBDY; in those cases, VISITDY must be populated."^^xsd:string ;
  cdiscs:partOfSection <http://rdf.cdisc.org/std/sendig-3-0#Section.LB.004> ;
.
<http://rdf.cdisc.org/std/sendig-3-0#Assumption.LB.004.002>
  rdf:type cdiscs:Assumption ;
  mms:ordinal "11"^^xsd:positiveInteger ;
  cdiscs:about <http://rdf.cdisc.org/std/sendig-3-0#Column.LB.LBDTC> ;
  cdiscs:about <http://rdf.cdisc.org/std/sendig-3-0#Column.LB.LBENDTC> ;
  cdiscs:assumptionText "b. For lab tests where the specimen is collected over time (e.g., 24-hour urine collection), the start date/time of the collection goes into LBDTC and the end date/time of collection goes into LBENDTC."^^xsd:string ;
  cdiscs:partOfSection <http://rdf.cdisc.org/std/sendig-3-0#Section.LB.004> ;
.
<http://rdf.cdisc.org/std/sendig-3-0#Assumption.LB.004.003>
  rdf:type cdiscs:Assumption ;
  mms:ordinal "12"^^xsd:positiveInteger ;
  cdiscs:about <http://rdf.cdisc.org/std/sendig-3-0#Column.LB.VISITDY> ;
  cdiscs:assumptionText "c. VISITDY is Expected and is used to indicate the planned day of specimen collection. VISITDY is intended to reflect grace days for samples that should be statistically analyzed together."^^xsd:string ;
  cdiscs:partOfSection <http://rdf.cdisc.org/std/sendig-3-0#Section.LB.004> ;
.
<http://rdf.cdisc.org/std/sendig-3-0#Assumption.LB.005.001>
  rdf:type cdiscs:Assumption ;
  mms:ordinal "13"^^xsd:positiveInteger ;
  cdiscs:about <http://rdf.cdisc.org/std/sendig-3-0#Column.LB.POOLID> ;
  cdiscs:assumptionText "a. For Lab results that correspond to samples pooled from different subjects, POOLID will be populated with a unique number identifying the pool (see Section 8.7.1)."^^xsd:string ;
  cdiscs:partOfSection <http://rdf.cdisc.org/std/sendig-3-0#Section.LB.005> ;
.
<http://rdf.cdisc.org/std/sendig-3-0#Assumption.LB.005.002>
  rdf:type cdiscs:Assumption ;
  mms:ordinal "14"^^xsd:positiveInteger ;
  cdiscs:about <http://rdf.cdisc.org/std/sendig-3-0#Column.LB.POOLID> ;
  cdiscs:assumptionText "b. One record will exist for each pool in LB. Populating POOLID will mark the result as being collected at a pool level and not on a subject level."^^xsd:string ;
  cdiscs:partOfSection <http://rdf.cdisc.org/std/sendig-3-0#Section.LB.005> ;
.
<http://rdf.cdisc.org/std/sendig-3-0#Assumption.LB.006.001>
  rdf:type cdiscs:Assumption ;
  mms:ordinal "15"^^xsd:positiveInteger ;
  cdiscs:about <http://rdf.cdisc.org/std/sendig-3-0#Table.LB> ;
  cdiscs:assumptionText "a. The following Qualifiers would not generally be used in LB: --BODSYS, --SEV, --DTHREL, --OBJ."^^xsd:string ;
  cdiscs:partOfSection <http://rdf.cdisc.org/std/sendig-3-0#Section.LB.006> ;
.
<http://rdf.cdisc.org/std/sendig-3-0#Assumption.LB.006.002>
  rdf:type cdiscs:Assumption ;
  mms:ordinal "16"^^xsd:positiveInteger ;
  cdiscs:about <http://rdf.cdisc.org/std/sendig-3-0#Column.LB.LBORRES> ;
  cdiscs:assumptionText "b. A value derived by a lab according to their procedures is considered as having an Origin of Collected rather than Derived."^^xsd:string ;
  cdiscs:partOfSection <http://rdf.cdisc.org/std/sendig-3-0#Section.LB.006> ;
.
<http://rdf.cdisc.org/std/sendig-3-0#Assumption.LB.006.003>
  rdf:type cdiscs:Assumption ;
  mms:ordinal "17"^^xsd:positiveInteger ;
  cdiscs:about <http://rdf.cdisc.org/std/sendig-3-0#Column.LB.LBNRIND> ;
  cdiscs:about <http://rdf.cdisc.org/std/sendig-3-0#Column.LB.LBORNRHI> ;
  cdiscs:about <http://rdf.cdisc.org/std/sendig-3-0#Column.LB.LBORNRLO> ;
  cdiscs:about <http://rdf.cdisc.org/std/sendig-3-0#Column.LB.LBSTNRHI> ;
  cdiscs:about <http://rdf.cdisc.org/std/sendig-3-0#Column.LB.LBSTNRLO> ;
  cdiscs:assumptionText "c. A single reference range can be included for either standard results (LBSTNRLO and LBSTNRHI) or original results (LBORNRLO and LBORNRHI), but not both. LBNRIND is used as a reference range indicator for the range being used."^^xsd:string ;
  cdiscs:partOfSection <http://rdf.cdisc.org/std/sendig-3-0#Section.LB.006> ;
.
<http://rdf.cdisc.org/std/sendig-3-0#Assumption.MA.001.001>
  rdf:type cdiscs:Assumption ;
  mms:ordinal "1"^^xsd:positiveInteger ;
  cdiscs:about <http://rdf.cdisc.org/std/sendig-3-0#Table.MA> ;
  cdiscs:assumptionText "a. The macroscopic findings dataset provides a record for each macroscopic finding observed."^^xsd:string ;
  cdiscs:partOfSection <http://rdf.cdisc.org/std/sendig-3-0#Section.MA.001> ;
.
<http://rdf.cdisc.org/std/sendig-3-0#Assumption.MA.001.002>
  rdf:type cdiscs:Assumption ;
  mms:ordinal "2"^^xsd:positiveInteger ;
  cdiscs:about <http://rdf.cdisc.org/std/sendig-3-0#Table.MA> ;
  cdiscs:assumptionText "b. Every animal examined at necropsy should have at least one record in the MA domain (e.g., the record could be NORMAL [in MAORRES] for MASPEC value of \"ALL TISSUES\", implying all protocol-required tissues)."^^xsd:string ;
  cdiscs:partOfSection <http://rdf.cdisc.org/std/sendig-3-0#Section.MA.001> ;
.
<http://rdf.cdisc.org/std/sendig-3-0#Assumption.MA.002.001>
  rdf:type cdiscs:Assumption ;
  mms:ordinal "3"^^xsd:positiveInteger ;
  cdiscs:about <http://rdf.cdisc.org/std/sendig-3-0#Column.MA.MATEST> ;
  cdiscs:about <http://rdf.cdisc.org/std/sendig-3-0#Column.MA.MATESTCD> ;
  cdiscs:assumptionText "a. In most cases MATESTCD GROSPATH and MATEST will be Gross Pathological Examination."^^xsd:string ;
  cdiscs:partOfSection <http://rdf.cdisc.org/std/sendig-3-0#Section.MA.002> ;
.
<http://rdf.cdisc.org/std/sendig-3-0#Assumption.MA.002.002>
  rdf:type cdiscs:Assumption ;
  mms:ordinal "4"^^xsd:positiveInteger ;
  cdiscs:about <http://rdf.cdisc.org/std/sendig-3-0#Column.MA.MAORRES> ;
  cdiscs:about <http://rdf.cdisc.org/std/sendig-3-0#Column.MA.MATEST> ;
  cdiscs:about <http://rdf.cdisc.org/std/sendig-3-0#Column.MA.MATESTCD> ;
  cdiscs:assumptionText "b. Clinical Signs Follow-up Usage: As part of the necropsy review, a follow-up examination may be performed on clinical signs to verify existence (present/not present) at necropsy and to correlate them to gross pathological examinations. To record these in the domain: The result should be captured as the text result of the examination (e.g., \"SKIN LESION NOT FOUND AT NECROPSY\")."^^xsd:string ;
  cdiscs:partOfSection <http://rdf.cdisc.org/std/sendig-3-0#Section.MA.002> ;
.
<http://rdf.cdisc.org/std/sendig-3-0#Assumption.MA.003.001>
  rdf:type cdiscs:Assumption ;
  mms:ordinal "5"^^xsd:positiveInteger ;
  cdiscs:about <http://rdf.cdisc.org/std/sendig-3-0#Column.MA.MADTC> ;
  cdiscs:assumptionText "MADTC is used for the date/time of the finding, typically the date/time of necropsy."^^xsd:string ;
  cdiscs:partOfSection <http://rdf.cdisc.org/std/sendig-3-0#Section.MA.003> ;
.
<http://rdf.cdisc.org/std/sendig-3-0#Assumption.MA.004.001>
  rdf:type cdiscs:Assumption ;
  mms:ordinal "6"^^xsd:positiveInteger ;
  cdiscs:about <http://rdf.cdisc.org/std/sendig-3-0#Column.MA.MAANTREG> ;
  cdiscs:about <http://rdf.cdisc.org/std/sendig-3-0#Column.MA.MADIR> ;
  cdiscs:about <http://rdf.cdisc.org/std/sendig-3-0#Column.MA.MALAT> ;
  cdiscs:about <http://rdf.cdisc.org/std/sendig-3-0#Column.MA.MAPORTOT> ;
  cdiscs:about <http://rdf.cdisc.org/std/sendig-3-0#Column.MA.MASPEC> ;
  cdiscs:assumptionText "a. The subject organ/tissue of examination is described by up to five fields: MASPEC, MAANTREG, MALAT, MADIR, and MAPORTOT."^^xsd:string ;
  cdiscs:partOfSection <http://rdf.cdisc.org/std/sendig-3-0#Section.MA.004> ;
.
<http://rdf.cdisc.org/std/sendig-3-0#Assumption.MA.004.002>
  rdf:type cdiscs:Assumption ;
  mms:ordinal "7"^^xsd:positiveInteger ;
  cdiscs:about <http://rdf.cdisc.org/std/sendig-3-0#Column.MA.MADIR> ;
  cdiscs:about <http://rdf.cdisc.org/std/sendig-3-0#Column.MA.MALAT> ;
  cdiscs:about <http://rdf.cdisc.org/std/sendig-3-0#Column.MA.MASPEC> ;
  cdiscs:about <http://rdf.cdisc.org/std/sendig-3-0#Column.MA.MATEST> ;
  cdiscs:assumptionText "b. MASPEC defines the base organ or tissue examined and is required when MATEST is \"Gross Pathological Examination\". It should not be used when MATEST is \"Clinical Signs Follow-up\". The value is singular in cases of multilateral organs when the MALAT or MADIR fields can be used to describe laterality and/or position."^^xsd:string ;
  cdiscs:partOfSection <http://rdf.cdisc.org/std/sendig-3-0#Section.MA.004> ;
.
<http://rdf.cdisc.org/std/sendig-3-0#Assumption.MA.004.003>
  rdf:type cdiscs:Assumption ;
  mms:ordinal "8"^^xsd:positiveInteger ;
  cdiscs:about <http://rdf.cdisc.org/std/sendig-3-0#Column.MA.MAANTREG> ;
  cdiscs:about <http://rdf.cdisc.org/std/sendig-3-0#Column.MA.MASPEC> ;
  cdiscs:assumptionText "c. MAANTREG should be used where applicable, and further specifies a part or section of the organ/tissue specified in MASPEC. Examples include the cortex of the kidney or a study-specific sectioning of the organ (e.g., top section of left liver lobe)."^^xsd:string ;
  cdiscs:partOfSection <http://rdf.cdisc.org/std/sendig-3-0#Section.MA.004> ;
.
<http://rdf.cdisc.org/std/sendig-3-0#Assumption.MA.004.004>
  rdf:type cdiscs:Assumption ;
  mms:ordinal "9"^^xsd:positiveInteger ;
  cdiscs:about <http://rdf.cdisc.org/std/sendig-3-0#Column.MA.MALAT> ;
  cdiscs:about <http://rdf.cdisc.org/std/sendig-3-0#Column.MA.MAPORTOT> ;
  cdiscs:assumptionText "d. To specify laterality and/or position for those organs that can exist in multiple locations: Use \"SINGLE\" for MAPORTOT for cases where one of the multilateral organs is examined, but which one was used is unknown; and use \"BILATERAL\" for MALAT for cases where the finding was recorded on the paired organs of a bilateral pair."^^xsd:string ;
  cdiscs:partOfSection <http://rdf.cdisc.org/std/sendig-3-0#Section.MA.004> ;
.
<http://rdf.cdisc.org/std/sendig-3-0#Assumption.MA.004.005>
  rdf:type cdiscs:Assumption ;
  mms:ordinal "10"^^xsd:positiveInteger ;
  cdiscs:about <http://rdf.cdisc.org/std/sendig-3-0#Column.MA.MALAT> ;
  cdiscs:about <http://rdf.cdisc.org/std/sendig-3-0#Column.MA.MALOC> ;
  cdiscs:assumptionText "e. For bilateral organs, records may be included for the left, right, and/or both left and right organs."^^xsd:string ;
  cdiscs:partOfSection <http://rdf.cdisc.org/std/sendig-3-0#Section.MA.004> ;
.
<http://rdf.cdisc.org/std/sendig-3-0#Assumption.MA.005.001>
  rdf:type cdiscs:Assumption ;
  mms:ordinal "11"^^xsd:positiveInteger ;
  cdiscs:about <http://rdf.cdisc.org/std/sendig-3-0#Column.MA.MAORRES> ;
  cdiscs:about <http://rdf.cdisc.org/std/sendig-3-0#Column.MA.MASPEC> ;
  cdiscs:about <http://rdf.cdisc.org/std/sendig-3-0#Column.MA.MASTRESC> ;
  cdiscs:assumptionText "a. When the results of all tissues are normal, the special value of \"ALL TISSUES\" may be used in MASPEC, with a single record whose value in MAORRES and MASTRESC is NORMAL, without individually listing each tissue."^^xsd:string ;
  cdiscs:partOfSection <http://rdf.cdisc.org/std/sendig-3-0#Section.MA.005> ;
.
<http://rdf.cdisc.org/std/sendig-3-0#Assumption.MA.005.002>
  rdf:type cdiscs:Assumption ;
  mms:ordinal "12"^^xsd:positiveInteger ;
  cdiscs:about <http://rdf.cdisc.org/std/sendig-3-0#Column.MA.MAORRES> ;
  cdiscs:about <http://rdf.cdisc.org/std/sendig-3-0#Column.MA.MASEV> ;
  cdiscs:about <http://rdf.cdisc.org/std/sendig-3-0#Column.MA.MASTRESC> ;
  cdiscs:assumptionText """b. MASTRESC: This variable is important for standardizing the value in MAORRES.
i. Modifiers of the base gross pathological observation (in MASTRESC) should be included within Supplemental Qualifiers
(see SUPPMA Example 1):
- QNAM = \"--RESMOD\"
- QLABEL = \"Result Modifiers\"
- QVAL = concatenated modifiers of the base gross pathological process separated by semicolons
ii. If a severity was received or collected, MASEV must be populated."""^^xsd:string ;
  cdiscs:partOfSection <http://rdf.cdisc.org/std/sendig-3-0#Section.MA.005> ;
.
<http://rdf.cdisc.org/std/sendig-3-0#Assumption.MA.006.001>
  rdf:type cdiscs:Assumption ;
  mms:ordinal "13"^^xsd:positiveInteger ;
  cdiscs:about <http://rdf.cdisc.org/std/sendig-3-0#Column.MA.MASPID> ;
  cdiscs:assumptionText "MASPID variable is intended to reflect the mass identification. This variable should be used to link in-life findings with pathology findings. For a carcinogenicity study, the mass identifier in --SPID should be consistent across domains (CL, PM, MA, MI, and TF)."^^xsd:string ;
  cdiscs:partOfSection <http://rdf.cdisc.org/std/sendig-3-0#Section.MA.006> ;
.
<http://rdf.cdisc.org/std/sendig-3-0#Assumption.MA.007.001>
  rdf:type cdiscs:Assumption ;
  mms:ordinal "14"^^xsd:positiveInteger ;
  cdiscs:about <http://rdf.cdisc.org/std/sendig-3-0#Table.MA> ;
  cdiscs:assumptionText "Macroscopic findings commonly correlate to clinical findings and microscopic findings. Establishing this relationship may be accomplished by use of the RELREC table (see Section 8.3.1)."^^xsd:string ;
  cdiscs:partOfSection <http://rdf.cdisc.org/std/sendig-3-0#Section.MA.007> ;
.
<http://rdf.cdisc.org/std/sendig-3-0#Assumption.MA.008.001>
  rdf:type cdiscs:Assumption ;
  mms:ordinal "15"^^xsd:positiveInteger ;
  cdiscs:about <http://rdf.cdisc.org/std/sendig-3-0#Table.MA> ;
  cdiscs:assumptionText "These variables are generally not used for this domain: --POS, --ORNRLO, --ORNRHI, --MODIFY, --STNRLO, --STNRHI, --STNRC, --NRIND, --LOINC, --LOC, --BLFL, --DRVFL, --LLOQ."^^xsd:string ;
  cdiscs:partOfSection <http://rdf.cdisc.org/std/sendig-3-0#Section.MA.008> ;
.
<http://rdf.cdisc.org/std/sendig-3-0#Assumption.MA.009.001>
  rdf:type cdiscs:Assumption ;
  mms:ordinal "16"^^xsd:positiveInteger ;
  cdiscs:about <http://rdf.cdisc.org/std/sendig-3-0#Table.MA> ;
  cdiscs:assumptionText "These timing variables are generally not used for this domain: VISITDY, TAETORD, EPOCH, --STDTC, --ENDTC, --STDY, --ENDY, --DUR, --TPT, --TPTNUM, --ELTM, --TPTREF, --RFTDTC, --STRF, --ENRF, --EVLINT, --STRTPT, --ENRTPT, --STTPT, --ENTPT."^^xsd:string ;
  cdiscs:partOfSection <http://rdf.cdisc.org/std/sendig-3-0#Section.MA.009> ;
.
<http://rdf.cdisc.org/std/sendig-3-0#Assumption.MI.001.001>
  rdf:type cdiscs:Assumption ;
  mms:ordinal "1"^^xsd:positiveInteger ;
  cdiscs:about <http://rdf.cdisc.org/std/sendig-3-0#Table.MI> ;
  cdiscs:assumptionText "a. The Microscopic Findings captures the microscopic evaluations/histopathology of the study."^^xsd:string ;
  cdiscs:partOfSection <http://rdf.cdisc.org/std/sendig-3-0#Section.MI.001> ;
.
<http://rdf.cdisc.org/std/sendig-3-0#Assumption.MI.001.002>
  rdf:type cdiscs:Assumption ;
  mms:ordinal "2"^^xsd:positiveInteger ;
  cdiscs:about <http://rdf.cdisc.org/std/sendig-3-0#Table.MI> ;
  cdiscs:assumptionText "b. This domain should contain at least one record for every scheduled tissue for all subjects in the study (i.e., if an organ was examined and found normal, it should have a record indicating NORMAL). In addition unscheduled tissues that were examined should also have a record. Subjects that were not scheduled for examination should not have records unless they were examined. This assumption supports creating incidence tables and statistical analysis on histopathological data."^^xsd:string ;
  cdiscs:partOfSection <http://rdf.cdisc.org/std/sendig-3-0#Section.MI.001> ;
.
<http://rdf.cdisc.org/std/sendig-3-0#Assumption.MI.001.003>
  rdf:type cdiscs:Assumption ;
  mms:ordinal "3"^^xsd:positiveInteger ;
  cdiscs:about <http://rdf.cdisc.org/std/sendig-3-0#Table.MI> ;
  cdiscs:assumptionText "c. The microscopic findings dataset provides a record for each microscopic finding observed throughout the study."^^xsd:string ;
  cdiscs:partOfSection <http://rdf.cdisc.org/std/sendig-3-0#Section.MI.001> ;
.
<http://rdf.cdisc.org/std/sendig-3-0#Assumption.MI.002.001>
  rdf:type cdiscs:Assumption ;
  mms:ordinal "4"^^xsd:positiveInteger ;
  cdiscs:about <http://rdf.cdisc.org/std/sendig-3-0#Column.MI.MIDTC> ;
  cdiscs:assumptionText "MIDTC is used for the date/time of the collection of the specimen."^^xsd:string ;
  cdiscs:partOfSection <http://rdf.cdisc.org/std/sendig-3-0#Section.MI.002> ;
.
<http://rdf.cdisc.org/std/sendig-3-0#Assumption.MI.003.001>
  rdf:type cdiscs:Assumption ;
  mms:ordinal "5"^^xsd:positiveInteger ;
  cdiscs:about <http://rdf.cdisc.org/std/sendig-3-0#Table.MI> ;
  cdiscs:assumptionText "a. A finding should only be comprised of one base pathological process and its modifiers such as severity, distribution, frequency, grade, etc."^^xsd:string ;
  cdiscs:partOfSection <http://rdf.cdisc.org/std/sendig-3-0#Section.MI.003> ;
.
<http://rdf.cdisc.org/std/sendig-3-0#Assumption.MI.003.002>
  rdf:type cdiscs:Assumption ;
  mms:ordinal "6"^^xsd:positiveInteger ;
  cdiscs:about <http://rdf.cdisc.org/std/sendig-3-0#Column.MI.MIORRES> ;
  cdiscs:about <http://rdf.cdisc.org/std/sendig-3-0#Column.MI.MIREASND> ;
  cdiscs:about <http://rdf.cdisc.org/std/sendig-3-0#Column.MI.MISTAT> ;
  cdiscs:assumptionText """b. Expectations of when MISTAT is \"NOT DONE\".
i. If an organ (scheduled for histopathology or introduced later because of adverse findings) for some reason was not examined, the record will have a blank value in MIORRES and MISTAT will be \"NOT DONE\". Failure to adhere to this assumption will preclude the generation of the tumor dataset described in the FDA Study Data Specification applicable for carcinogenicity studies.
ii. Use of MISTAT and MIREASND: Whenever MISTAT is \"NOT DONE\"; MIREASND should provide the reason for not completing the evaluation as scheduled in the study plan."""^^xsd:string ;
  cdiscs:partOfSection <http://rdf.cdisc.org/std/sendig-3-0#Section.MI.003> ;
.
<http://rdf.cdisc.org/std/sendig-3-0#Assumption.MI.003.003>
  rdf:type cdiscs:Assumption ;
  mms:ordinal "7"^^xsd:positiveInteger ;
  cdiscs:about <http://rdf.cdisc.org/std/sendig-3-0#Column.MI.MISTRESN> ;
  cdiscs:about <http://rdf.cdisc.org/std/sendig-3-0#Column.MI.MISTRESU> ;
  cdiscs:assumptionText "c. For microscopic evaluations that have numeric results (e.g., specific cell count tests), MISTRESN and MISTRESU should be included as well as other variables applicable for the Findings observation class to accurately reflect the data."^^xsd:string ;
  cdiscs:partOfSection <http://rdf.cdisc.org/std/sendig-3-0#Section.MI.003> ;
.
<http://rdf.cdisc.org/std/sendig-3-0#Assumption.MI.003.004>
  rdf:type cdiscs:Assumption ;
  mms:ordinal "8"^^xsd:positiveInteger ;
  cdiscs:about <http://rdf.cdisc.org/std/sendig-3-0#Column.MI.MIORRES> ;
  cdiscs:about <http://rdf.cdisc.org/std/sendig-3-0#Column.MI.MISEV> ;
  cdiscs:about <http://rdf.cdisc.org/std/sendig-3-0#Column.MI.MISTRESC> ;
  cdiscs:assumptionText """d. MISTRESC: This variable is important for standardizing the value in MIORRES.
i. Modifiers of the base pathological process (in MISTRESC) should be included within Supplemental Qualifiers (see SUPPMI Example 1):
- QNAM = \"--RESMOD\"
- QLABEL = \"Result Modifiers\"
- QVAL = concatenated modifiers of the base pathological process separated by semicolons
ii. If a severity was received or collected, MISEV must be populated."""^^xsd:string ;
  cdiscs:partOfSection <http://rdf.cdisc.org/std/sendig-3-0#Section.MI.003> ;
.
<http://rdf.cdisc.org/std/sendig-3-0#Assumption.MI.004.001>
  rdf:type cdiscs:Assumption ;
  mms:ordinal "9"^^xsd:positiveInteger ;
  cdiscs:about <http://rdf.cdisc.org/std/sendig-3-0#Column.MI.MISPID> ;
  cdiscs:assumptionText "MISPID variable is intended to reflect the mass identification. This variable should be used to link in-life findings with pathology findings. For a carcinogenicity study, the mass identifier in --SPID should be consistent across domains (CL, PM, MA, MI, and TF)."^^xsd:string ;
  cdiscs:partOfSection <http://rdf.cdisc.org/std/sendig-3-0#Section.MI.004> ;
.
<http://rdf.cdisc.org/std/sendig-3-0#Assumption.MI.005.001>
  rdf:type cdiscs:Assumption ;
  mms:ordinal "10"^^xsd:positiveInteger ;
  cdiscs:about <http://rdf.cdisc.org/std/sendig-3-0#Column.MI.MIRESCAT> ;
  cdiscs:about <http://rdf.cdisc.org/std/sendig-3-0#Table.MI> ;
  cdiscs:assumptionText "Tumor findings should have a record in this domain, even if they also have records in the TF domain. It is, however, not required to populate MIRESCAT for tumor findings in the MI domain."^^xsd:string ;
  cdiscs:partOfSection <http://rdf.cdisc.org/std/sendig-3-0#Section.MI.005> ;
.
<http://rdf.cdisc.org/std/sendig-3-0#Assumption.MI.006.001>
  rdf:type cdiscs:Assumption ;
  mms:ordinal "11"^^xsd:positiveInteger ;
  cdiscs:about <http://rdf.cdisc.org/std/sendig-3-0#Table.MI> ;
  cdiscs:assumptionText "These variables are generally not used for this domain: --POS, --ORNRLO, --ORNRHI, --MODIFY, --STNRLO, --STNRHI, --STNRC, --NRIND, --LOINC, --LOC, --BLFL, --DRVFL, --LLOQ, --PORTOT."^^xsd:string ;
  cdiscs:partOfSection <http://rdf.cdisc.org/std/sendig-3-0#Section.MI.006> ;
.
<http://rdf.cdisc.org/std/sendig-3-0#Assumption.MI.007.001>
  rdf:type cdiscs:Assumption ;
  mms:ordinal "12"^^xsd:positiveInteger ;
  cdiscs:about <http://rdf.cdisc.org/std/sendig-3-0#Table.MI> ;
  cdiscs:assumptionText "These Timing variables are generally not used for this domain: VISITDY, TAETORD, EPOCH, --STDTC, --ENDTC, --STDY, --ENDY, --DUR, --TPT, --TPTNUM, --ELTM, --TPTREF, --RFTDTC, --STRF, --ENRF, --EVLINT, --STRTPT, --ENRTPT, --STTPT, --ENTPT."^^xsd:string ;
  cdiscs:partOfSection <http://rdf.cdisc.org/std/sendig-3-0#Section.MI.007> ;
.
<http://rdf.cdisc.org/std/sendig-3-0#Assumption.OM.000.001>
  rdf:type cdiscs:Assumption ;
  mms:ordinal "1"^^xsd:positiveInteger ;
  cdiscs:about <http://rdf.cdisc.org/std/sendig-3-0#Table.OM> ;
  cdiscs:assumptionText "The Organ Measurements (OM) domain contains details of organ weights and relative organ weights."^^xsd:string ;
  cdiscs:partOfSection <http://rdf.cdisc.org/std/sendig-3-0#Section.OM.000> ;
.
<http://rdf.cdisc.org/std/sendig-3-0#Assumption.OM.000.002>
  rdf:type cdiscs:Assumption ;
  mms:ordinal "2"^^xsd:positiveInteger ;
  cdiscs:about <http://rdf.cdisc.org/std/sendig-3-0#Table.BW> ;
  cdiscs:about <http://rdf.cdisc.org/std/sendig-3-0#Table.OM> ;
  cdiscs:assumptionText "Terminal Body Weight will be recorded in the BW domain and this is indicated by the test code (BWTESTCD) of TERMBW."^^xsd:string ;
  cdiscs:partOfSection <http://rdf.cdisc.org/std/sendig-3-0#Section.OM.000> ;
.
<http://rdf.cdisc.org/std/sendig-3-0#Assumption.OM.000.003>
  rdf:type cdiscs:Assumption ;
  mms:ordinal "3"^^xsd:positiveInteger ;
  cdiscs:about <http://rdf.cdisc.org/std/sendig-3-0#Column.OM.OMORRESU> ;
  cdiscs:assumptionText "Organ measurement ratios within a single study should either be pure ratios with no units specified or percentages with unit shown as \"%\". It is strongly recommended that pure ratios and percentages should not be mixed."^^xsd:string ;
  cdiscs:partOfSection <http://rdf.cdisc.org/std/sendig-3-0#Section.OM.000> ;
.
<http://rdf.cdisc.org/std/sendig-3-0#Assumption.OM.000.004>
  rdf:type cdiscs:Assumption ;
  mms:ordinal "4"^^xsd:positiveInteger ;
  cdiscs:about <http://rdf.cdisc.org/std/sendig-3-0#Table.OM> ;
  cdiscs:assumptionText "Currently in this model, the sponsor is not expected to attempt to relate the organ weight ratios to their underlying source results used in the calculation through the RELREC or GRPID mechanisms."^^xsd:string ;
  cdiscs:partOfSection <http://rdf.cdisc.org/std/sendig-3-0#Section.OM.000> ;
.
<http://rdf.cdisc.org/std/sendig-3-0#Assumption.PC.000.001>
  rdf:type cdiscs:Assumption ;
  mms:ordinal "1"^^xsd:positiveInteger ;
  cdiscs:about <http://rdf.cdisc.org/std/sendig-3-0#Table.PC> ;
  cdiscs:assumptionText """The structure is one record per concentration or sample characteristic per analyte. In addition to one record for each concentration measurement, specimen
properties (e.g., volume and pH) are handled via separate records in this dataset."""^^xsd:string ;
  cdiscs:partOfSection <http://rdf.cdisc.org/std/sendig-3-0#Section.PC.000> ;
.
<http://rdf.cdisc.org/std/sendig-3-0#Assumption.PC.000.002>
  rdf:type cdiscs:Assumption ;
  mms:ordinal "2"^^xsd:positiveInteger ;
  cdiscs:about <http://rdf.cdisc.org/std/sendig-3-0#Column.PC.PCLLOQ> ;
  cdiscs:about <http://rdf.cdisc.org/std/sendig-3-0#Column.PC.PCORRES> ;
  cdiscs:about <http://rdf.cdisc.org/std/sendig-3-0#Column.PC.PCSTRESN> ;
  cdiscs:assumptionText "If the PCORRES result is less than the Lower Limit of Quantification (LLQ), then PCSTRESN should be null and not populated with the value of zero (0)."^^xsd:string ;
  cdiscs:partOfSection <http://rdf.cdisc.org/std/sendig-3-0#Section.PC.000> ;
.
<http://rdf.cdisc.org/std/sendig-3-0#Assumption.PC.000.003>
  rdf:type cdiscs:Assumption ;
  mms:ordinal "3"^^xsd:positiveInteger ;
  cdiscs:about <http://rdf.cdisc.org/std/sendig-3-0#Table.PC> ;
  cdiscs:assumptionText "The following Qualifiers would not generally be used in PC: --BODSYS, --SEV, --DTHREL, --OBJ."^^xsd:string ;
  cdiscs:partOfSection <http://rdf.cdisc.org/std/sendig-3-0#Section.PC.000> ;
.
<http://rdf.cdisc.org/std/sendig-3-0#Assumption.PC.000.004>
  rdf:type cdiscs:Assumption ;
  mms:ordinal "4"^^xsd:positiveInteger ;
  cdiscs:about <http://rdf.cdisc.org/std/sendig-3-0#Column.PC.PCDTC> ;
  cdiscs:about <http://rdf.cdisc.org/std/sendig-3-0#Column.PC.PCENDTC> ;
  cdiscs:assumptionText "PCDTC and PCENDTC variables, if applicable, are used as described in Section 4.4.6."^^xsd:string ;
  cdiscs:partOfSection <http://rdf.cdisc.org/std/sendig-3-0#Section.PC.000> ;
.
<http://rdf.cdisc.org/std/sendig-3-0#Assumption.PM.001.001>
  rdf:type cdiscs:Assumption ;
  mms:ordinal "1"^^xsd:positiveInteger ;
  cdiscs:about <http://rdf.cdisc.org/std/sendig-3-0#Table.PM> ;
  cdiscs:assumptionText "The Palpable Masses domain captures information of any palpable masses examined during the experimental phase in the study."^^xsd:string ;
  cdiscs:partOfSection <http://rdf.cdisc.org/std/sendig-3-0#Section.PM.001> ;
.
<http://rdf.cdisc.org/std/sendig-3-0#Assumption.PM.002.001>
  rdf:type cdiscs:Assumption ;
  mms:ordinal "2"^^xsd:positiveInteger ;
  cdiscs:about <http://rdf.cdisc.org/std/sendig-3-0#Column.PM.PMORRES> ;
  cdiscs:about <http://rdf.cdisc.org/std/sendig-3-0#Column.PM.PMTEST> ;
  cdiscs:assumptionText "a. PMORRES should reflect the original result as collected. The data should be reported the way it is collected. Example: One lab may choose to collect all their information on a mass in one long text string, in which case the PMTEST should be \"Mass Description\" and PMORRES would contain the text string. Another lab may collect the data separately, in which case the PMTEST would contain the specific measurement done on the mass. In either way, the PMTEST always reflects the granularity of how the data were collected."^^xsd:string ;
  cdiscs:partOfSection <http://rdf.cdisc.org/std/sendig-3-0#Section.PM.002> ;
.
<http://rdf.cdisc.org/std/sendig-3-0#Assumption.PM.002.002>
  rdf:type cdiscs:Assumption ;
  mms:ordinal "3"^^xsd:positiveInteger ;
  cdiscs:about <http://rdf.cdisc.org/std/sendig-3-0#Column.PM.PMLOC> ;
  cdiscs:about <http://rdf.cdisc.org/std/sendig-3-0#Column.PM.PMSTRESC> ;
  cdiscs:assumptionText "b. PMSTRESC should contain the finding without the location specified in PMLOC."^^xsd:string ;
  cdiscs:partOfSection <http://rdf.cdisc.org/std/sendig-3-0#Section.PM.002> ;
.
<http://rdf.cdisc.org/std/sendig-3-0#Assumption.PM.003.001>
  rdf:type cdiscs:Assumption ;
  mms:ordinal "4"^^xsd:positiveInteger ;
  cdiscs:about <http://rdf.cdisc.org/std/sendig-3-0#Column.PM.PMSPID> ;
  cdiscs:assumptionText "PMSPID variable is intended to reflect the mass identification. This variable should be used to link in-life findings with pathology findings. For a carcinogenicity study, the mass identifier in --SPID should be consistent across domains (CL, PM, MA, MI, and TF)."^^xsd:string ;
  cdiscs:partOfSection <http://rdf.cdisc.org/std/sendig-3-0#Section.PM.003> ;
.
<http://rdf.cdisc.org/std/sendig-3-0#Assumption.PM.004.001>
  rdf:type cdiscs:Assumption ;
  mms:ordinal "5"^^xsd:positiveInteger ;
  cdiscs:about <http://rdf.cdisc.org/std/sendig-3-0#Column.PM.PMDTC> ;
  cdiscs:about <http://rdf.cdisc.org/std/sendig-3-0#Column.PM.PMDY> ;
  cdiscs:assumptionText "a. PMDTC is Expected and the dataset should contain either PMDTC or PMDY to identify the timing of the collection of the observation."^^xsd:string ;
  cdiscs:partOfSection <http://rdf.cdisc.org/std/sendig-3-0#Section.PM.004> ;
.
<http://rdf.cdisc.org/std/sendig-3-0#Assumption.PM.004.002>
  rdf:type cdiscs:Assumption ;
  mms:ordinal "6"^^xsd:positiveInteger ;
  cdiscs:about <http://rdf.cdisc.org/std/sendig-3-0#Column.PM.VISITDY> ;
  cdiscs:assumptionText "b. VISITDY is Expected and is used to indicate the planned day of assessment. VISITDY can be used to reflect a focus day around which grace days may be allowed for observations that should be statistically analyzed together."^^xsd:string ;
  cdiscs:partOfSection <http://rdf.cdisc.org/std/sendig-3-0#Section.PM.004> ;
.
<http://rdf.cdisc.org/std/sendig-3-0#Assumption.POOLDEF.001.001>
  rdf:type cdiscs:Assumption ;
  mms:ordinal "1"^^xsd:positiveInteger ;
  cdiscs:about <http://rdf.cdisc.org/std/sendig-3-0#Table.POOLDEF> ;
  cdiscs:assumptionText "a. The Pooled Subjects domain identifies the subjects that are included in a pool for which single finding records that are captured for a group of subjects."^^xsd:string ;
  cdiscs:partOfSection <http://rdf.cdisc.org/std/sendig-3-0#Section.POOLDEF.001> ;
.
<http://rdf.cdisc.org/std/sendig-3-0#Assumption.POOLDEF.001.002>
  rdf:type cdiscs:Assumption ;
  mms:ordinal "2"^^xsd:positiveInteger ;
  cdiscs:about <http://rdf.cdisc.org/std/sendig-3-0#Table.POOLDEF> ;
  cdiscs:assumptionText "b. A pool must consist of at least one subject."^^xsd:string ;
  cdiscs:partOfSection <http://rdf.cdisc.org/std/sendig-3-0#Section.POOLDEF.001> ;
.
<http://rdf.cdisc.org/std/sendig-3-0#Assumption.POOLDEF.002.001>
  rdf:type cdiscs:Assumption ;
  mms:ordinal "3"^^xsd:positiveInteger ;
  cdiscs:about <http://rdf.cdisc.org/std/sendig-3-0#Column.POOLDEF.POOLID> ;
  cdiscs:assumptionText "POOLID is unique for a given set of subjects."^^xsd:string ;
  cdiscs:partOfSection <http://rdf.cdisc.org/std/sendig-3-0#Section.POOLDEF.002> ;
.
<http://rdf.cdisc.org/std/sendig-3-0#Assumption.PP.000.001>
  rdf:type cdiscs:Assumption ;
  mms:ordinal "1"^^xsd:positiveInteger ;
  cdiscs:about <http://rdf.cdisc.org/std/sendig-3-0#Table.PP> ;
  cdiscs:assumptionText "The Pharmacokinetics Parameters domain captures the pharmacokinetic parameter values for each pool or subject for each of the time-concentration profiles."^^xsd:string ;
  cdiscs:partOfSection <http://rdf.cdisc.org/std/sendig-3-0#Section.PP.000> ;
.
<http://rdf.cdisc.org/std/sendig-3-0#Assumption.PP.000.002>
  rdf:type cdiscs:Assumption ;
  mms:ordinal "2"^^xsd:positiveInteger ;
  cdiscs:about <http://rdf.cdisc.org/std/sendig-3-0#Table.PP> ;
  cdiscs:assumptionText "Information pertaining to all parameters (e.g., number of exponents, model weighting) should be submitted in either the SUPPPP dataset or the define file."^^xsd:string ;
  cdiscs:partOfSection <http://rdf.cdisc.org/std/sendig-3-0#Section.PP.000> ;
.
<http://rdf.cdisc.org/std/sendig-3-0#Assumption.PP.000.003>
  rdf:type cdiscs:Assumption ;
  mms:ordinal "3"^^xsd:positiveInteger ;
  cdiscs:about <http://rdf.cdisc.org/std/sendig-3-0#Table.PP> ;
  cdiscs:assumptionText "The following Qualifiers would not generally be used in PP: --BODSYS, --SEV, --DTHREL, --OBJ."^^xsd:string ;
  cdiscs:partOfSection <http://rdf.cdisc.org/std/sendig-3-0#Section.PP.000> ;
.
<http://rdf.cdisc.org/std/sendig-3-0#Assumption.SC.000.001>
  rdf:type cdiscs:Assumption ;
  mms:ordinal "1"^^xsd:positiveInteger ;
  cdiscs:about <http://rdf.cdisc.org/std/sendig-3-0#Table.SC> ;
  cdiscs:assumptionText "Subject Characteristics consists of data that is collected once per subject (per test). SC contains data that is either not normally expected to change during the study or whose change is not of interest after the initial collection. The sponsor should ensure that data considered for submission in SC do not actually belong in another domain."^^xsd:string ;
  cdiscs:partOfSection <http://rdf.cdisc.org/std/sendig-3-0#Section.SC.000> ;
.
<http://rdf.cdisc.org/std/sendig-3-0#Assumption.SC.000.002>
  rdf:type cdiscs:Assumption ;
  mms:ordinal "2"^^xsd:positiveInteger ;
  cdiscs:about <http://rdf.cdisc.org/std/sendig-3-0#Table.SC> ;
  cdiscs:assumptionText "Examples: Hair Coat, Physical Markings, etc. It is up to the sponsor to determine if they have any information relevant to this domain."^^xsd:string ;
  cdiscs:partOfSection <http://rdf.cdisc.org/std/sendig-3-0#Section.SC.000> ;
.
<http://rdf.cdisc.org/std/sendig-3-0#Assumption.SC.000.003>
  rdf:type cdiscs:Assumption ;
  mms:ordinal "3"^^xsd:positiveInteger ;
  cdiscs:about <http://rdf.cdisc.org/std/sendig-3-0#Table.DM> ;
  cdiscs:about <http://rdf.cdisc.org/std/sendig-3-0#Table.SC> ;
  cdiscs:assumptionText "The structure for subject characteristics is based on the Findings general observation class. It is an extension of the Demographics dataset. Any data that can be submitted in the Demographics Domain (DM) variables should not be submitted in Subject Characteristics (SC)."^^xsd:string ;
  cdiscs:partOfSection <http://rdf.cdisc.org/std/sendig-3-0#Section.SC.000> ;
.
<http://rdf.cdisc.org/std/sendig-3-0#Assumption.SC.000.004>
  rdf:type cdiscs:Assumption ;
  mms:ordinal "4"^^xsd:positiveInteger ;
  cdiscs:about <http://rdf.cdisc.org/std/sendig-3-0#Table.SC> ;
  cdiscs:assumptionText "The following qualifiers would not generally be used in SC: --MODIFY, --POS, --BODSYS, --ORNRLO, --ORNRHI, --STNRLO, --STNRHI, --STNRC, --NRIND, --RESCAT, --XFN, --NAM, --LOINC, --SPEC, --SPCCND, --METHOD, --BLFL, --FAST, --DRVRL, --TOX, --TOXGR, --SEV, --DTHREL, --OBJ."^^xsd:string ;
  cdiscs:partOfSection <http://rdf.cdisc.org/std/sendig-3-0#Section.SC.000> ;
.
<http://rdf.cdisc.org/std/sendig-3-0#Assumption.SE.000.001>
  rdf:type cdiscs:Assumption ;
  mms:ordinal "1"^^xsd:positiveInteger ;
  cdiscs:about <http://rdf.cdisc.org/std/sendig-3-0#Column.SE.SEENDTC> ;
  cdiscs:about <http://rdf.cdisc.org/std/sendig-3-0#Column.SE.SESTDTC> ;
  cdiscs:about <http://rdf.cdisc.org/std/sendig-3-0#Table.SE> ;
  cdiscs:assumptionText "The Subject Elements domain allows the submission of data on the individual experience: the actual timing and sequence of Elements a subject experienced. Please read Section 7.2 (Trial Elements) and Section 7.3 (Trial Arms), as these datasets define a study's planned Elements and describe the planned sequences of Elements for the Arms of the study. There are, by definition, no time gaps between Elements; therefore, the value of SEENDTC for one Element will always be the same as the value of SESTDTC for the next Element. Each Element continues until the time at which the next Element begins."^^xsd:string ;
  cdiscs:partOfSection <http://rdf.cdisc.org/std/sendig-3-0#Section.SE.000> ;
.
<http://rdf.cdisc.org/std/sendig-3-0#Assumption.SE.000.002>
  rdf:type cdiscs:Assumption ;
  mms:ordinal "2"^^xsd:positiveInteger ;
  cdiscs:about <http://rdf.cdisc.org/std/sendig-3-0#Column.SE.SEENDTC> ;
  cdiscs:about <http://rdf.cdisc.org/std/sendig-3-0#Column.SE.SESTDTC> ;
  cdiscs:assumptionText "For any particular subject, the dates in the Subject Elements table are the dates when the transition events identified in the Trial Elements table occurred."^^xsd:string ;
  cdiscs:partOfSection <http://rdf.cdisc.org/std/sendig-3-0#Section.SE.000> ;
.
<http://rdf.cdisc.org/std/sendig-3-0#Assumption.SE.000.003>
  rdf:type cdiscs:Assumption ;
  mms:ordinal "3"^^xsd:positiveInteger ;
  cdiscs:about <http://rdf.cdisc.org/std/sendig-3-0#Column.SE.SESTDTC> ;
  cdiscs:assumptionText "If the start date/time of an Element was not collected directly, the method used to infer the Element start date/time should be explained in the Comments column of the data definition file."^^xsd:string ;
  cdiscs:partOfSection <http://rdf.cdisc.org/std/sendig-3-0#Section.SE.000> ;
.
<http://rdf.cdisc.org/std/sendig-3-0#Assumption.SE.000.004>
  rdf:type cdiscs:Assumption ;
  mms:ordinal "4"^^xsd:positiveInteger ;
  cdiscs:about <http://rdf.cdisc.org/std/sendig-3-0#Column.SE.ELEMENT> ;
  cdiscs:about <http://rdf.cdisc.org/std/sendig-3-0#Column.SE.ETCD> ;
  cdiscs:assumptionText "If the sponsor decides that the subject's experience for a particular period of time cannot be represented with one of the planned Elements, then that period of time should be represented as an unplanned Element."^^xsd:string ;
  cdiscs:partOfSection <http://rdf.cdisc.org/std/sendig-3-0#Section.SE.000> ;
.
<http://rdf.cdisc.org/std/sendig-3-0#Assumption.SE.000.005>
  rdf:type cdiscs:Assumption ;
  mms:ordinal "5"^^xsd:positiveInteger ;
  cdiscs:about <http://rdf.cdisc.org/std/sendig-3-0#Column.SE.ELEMENT> ;
  cdiscs:about <http://rdf.cdisc.org/std/sendig-3-0#Column.SE.ETCD> ;
  cdiscs:assumptionText "The value of ETCD for an unplanned Element is \"UNPLAN\" and SEUPDES should be populated with a description of the unplanned Element. The ELEMENT value should be null in this case."^^xsd:string ;
  cdiscs:partOfSection <http://rdf.cdisc.org/std/sendig-3-0#Section.SE.000> ;
.
<http://rdf.cdisc.org/std/sendig-3-0#Assumption.SE.000.006>
  rdf:type cdiscs:Assumption ;
  mms:ordinal "6"^^xsd:positiveInteger ;
  cdiscs:about <http://rdf.cdisc.org/std/sendig-3-0#Column.SE.SESEQ> ;
  cdiscs:about <http://rdf.cdisc.org/std/sendig-3-0#Column.SE.SESTDTC> ;
  cdiscs:assumptionText "The values of SESTDTC provide the chronological order of the actual subject Elements. SESEQ should be assigned to be consistent with the chronological order. Note that the requirement that SESEQ be consistent with chronological order is more stringent than in most other domains where --SEQ values need only be unique within subject."^^xsd:string ;
  cdiscs:partOfSection <http://rdf.cdisc.org/std/sendig-3-0#Section.SE.000> ;
.
<http://rdf.cdisc.org/std/sendig-3-0#Assumption.TA.000.001>
  rdf:type cdiscs:Assumption ;
  mms:ordinal "1"^^xsd:positiveInteger ;
  cdiscs:about <http://rdf.cdisc.org/std/sendig-3-0#Table.TA> ;
  cdiscs:assumptionText "The Trial Arms dataset provides a record of the complete planned sequence of Elements for each Arm."^^xsd:string ;
  cdiscs:partOfSection <http://rdf.cdisc.org/std/sendig-3-0#Section.TA.000> ;
.
<http://rdf.cdisc.org/std/sendig-3-0#Assumption.TA.000.002>
  rdf:type cdiscs:Assumption ;
  mms:ordinal "2"^^xsd:positiveInteger ;
  cdiscs:about <http://rdf.cdisc.org/std/sendig-3-0#Column.DM.ARM> ;
  cdiscs:about <http://rdf.cdisc.org/std/sendig-3-0#Column.DM.ARMCD> ;
  cdiscs:about <http://rdf.cdisc.org/std/sendig-3-0#Column.TA.ARM> ;
  cdiscs:about <http://rdf.cdisc.org/std/sendig-3-0#Column.TA.ARMCD> ;
  cdiscs:assumptionText "ARM and ARMCD values in DM and TA must coincide (ARM and ARMCD are defined as the planned trial arms in TA, and the planned arms are then applied to subjects in DM)."^^xsd:string ;
  cdiscs:partOfSection <http://rdf.cdisc.org/std/sendig-3-0#Section.TA.000> ;
.
<http://rdf.cdisc.org/std/sendig-3-0#Assumption.TA.000.003>
  rdf:type cdiscs:Assumption ;
  mms:ordinal "3"^^xsd:positiveInteger ;
  cdiscs:about <http://rdf.cdisc.org/std/sendig-3-0#Column.TA.ARM> ;
  cdiscs:about <http://rdf.cdisc.org/std/sendig-3-0#Column.TA.ELEMENT> ;
  cdiscs:about <http://rdf.cdisc.org/std/sendig-3-0#Column.TA.TAETORD> ;
  cdiscs:assumptionText "TAETORD is an integer and is used to order the Elements within an Arm. In general the value of TAETORD is \"1\" for the first Element in each Arm, \"2\" for the second Element in each Arm, etc. Occasionally, the sequential order of the Elements may not be known in advance, in which case the TA domain is populated after the study has been conducted (e.g., for an unknown number of cycles of treatment and recovery in a group). Although the values of TAETORD need not always be consecutive, the values must always be populated according to the correct order of the Elements within an Arm, with the first Element equivalent to the lowest value of TAETORD and the last Element equivalent to the highest value of TAETORD."^^xsd:string ;
  cdiscs:partOfSection <http://rdf.cdisc.org/std/sendig-3-0#Section.TA.000> ;
.
<http://rdf.cdisc.org/std/sendig-3-0#Assumption.TA.000.004>
  rdf:type cdiscs:Assumption ;
  mms:ordinal "4"^^xsd:positiveInteger ;
  cdiscs:about <http://rdf.cdisc.org/std/sendig-3-0#Column.TA.ARM> ;
  cdiscs:about <http://rdf.cdisc.org/std/sendig-3-0#Column.TA.ELEMENT> ;
  cdiscs:assumptionText "The Elements in each Arm must be consecutive in time; it is not correct to leave any gaps in time between Elements. If a multiday pause in treatment is part of the study design, that should either be reflected within one of the existing Element definitions or a new Element representing the lack of treatment should be included."^^xsd:string ;
  cdiscs:partOfSection <http://rdf.cdisc.org/std/sendig-3-0#Section.TA.000> ;
.
<http://rdf.cdisc.org/std/sendig-3-0#Assumption.TA.000.005>
  rdf:type cdiscs:Assumption ;
  mms:ordinal "5"^^xsd:positiveInteger ;
  cdiscs:about <http://rdf.cdisc.org/std/sendig-3-0#Column.TA.ARM> ;
  cdiscs:about <http://rdf.cdisc.org/std/sendig-3-0#Column.TA.ELEMENT> ;
  cdiscs:about <http://rdf.cdisc.org/std/sendig-3-0#Column.TA.TAETORD> ;
  cdiscs:assumptionText "Elements in different Arms with the same value of TAETORD may or may not happen at the same time, depending on the design of the study."^^xsd:string ;
  cdiscs:partOfSection <http://rdf.cdisc.org/std/sendig-3-0#Section.TA.000> ;
.
<http://rdf.cdisc.org/std/sendig-3-0#Assumption.TA.000.006>
  rdf:type cdiscs:Assumption ;
  mms:ordinal "6"^^xsd:positiveInteger ;
  cdiscs:about <http://rdf.cdisc.org/std/sendig-3-0#Column.TA.ARM> ;
  cdiscs:about <http://rdf.cdisc.org/std/sendig-3-0#Column.TA.ELEMENT> ;
  cdiscs:about <http://rdf.cdisc.org/std/sendig-3-0#Column.TA.EPOCH> ;
  cdiscs:about <http://rdf.cdisc.org/std/sendig-3-0#Column.TA.TABRANCH> ;
  cdiscs:assumptionText "TABRANCH describes the outcome of a branch decision point in the trial design for subjects in the Arm. A branch decision point takes place between Epochs and is associated with the Element end, at which point the branching decision is made. For instance, if subjects are assigned to an Arm where they receive treatment A through a randomization at the end of Element X, the value of TABRANCH for Element X would be \"Randomized to A.\""^^xsd:string ;
  cdiscs:partOfSection <http://rdf.cdisc.org/std/sendig-3-0#Section.TA.000> ;
.
<http://rdf.cdisc.org/std/sendig-3-0#Assumption.TA.000.007>
  rdf:type cdiscs:Assumption ;
  mms:ordinal "7"^^xsd:positiveInteger ;
  cdiscs:about <http://rdf.cdisc.org/std/sendig-3-0#Column.TA.TABRANCH> ;
  cdiscs:assumptionText "Branch decision points may be based on decision processes other than randomizations, such as clinical evaluations of disease response."^^xsd:string ;
  cdiscs:partOfSection <http://rdf.cdisc.org/std/sendig-3-0#Section.TA.000> ;
.
<http://rdf.cdisc.org/std/sendig-3-0#Assumption.TA.000.008>
  rdf:type cdiscs:Assumption ;
  mms:ordinal "8"^^xsd:positiveInteger ;
  cdiscs:about <http://rdf.cdisc.org/std/sendig-3-0#Column.TA.ELEMENT> ;
  cdiscs:assumptionText "There is usually some gap in time between the performance of a randomization and the start of randomized treatment. However, in many studies this gap in time is small and it is not intended that animals will leave the study between randomization and treatment. In these circumstances, the study does not need to be modeled with this time period between randomization and start of treatment as a separate Element."^^xsd:string ;
  cdiscs:partOfSection <http://rdf.cdisc.org/std/sendig-3-0#Section.TA.000> ;
.
<http://rdf.cdisc.org/std/sendig-3-0#Assumption.TA.000.009>
  rdf:type cdiscs:Assumption ;
  mms:ordinal "9"^^xsd:positiveInteger ;
  cdiscs:about <http://rdf.cdisc.org/std/sendig-3-0#Column.TA.ARM> ;
  cdiscs:about <http://rdf.cdisc.org/std/sendig-3-0#Column.TA.ELEMENT> ;
  cdiscs:about <http://rdf.cdisc.org/std/sendig-3-0#Column.TA.TATRANS> ;
  cdiscs:assumptionText "TATRANS describes the decision points that may lead to a shortened path within an Arm, for example if some Elements within the Arm are skipped. If an Element does not end with a decision that could lead to a shortened path within the Arm, then TATRANS will be null. If there is a decision being represented within the value of TATRANS, the TATRANS rule should be populated as an 'if-then' statement (e.g., \"If condition X is true, then go to Element with TAETORD = Z\")."^^xsd:string ;
  cdiscs:partOfSection <http://rdf.cdisc.org/std/sendig-3-0#Section.TA.000> ;
.
<http://rdf.cdisc.org/std/sendig-3-0#Assumption.TA.000.010>
  rdf:type cdiscs:Assumption ;
  mms:ordinal "10"^^xsd:positiveInteger ;
  cdiscs:about <http://rdf.cdisc.org/std/sendig-3-0#Column.TA.ARM> ;
  cdiscs:about <http://rdf.cdisc.org/std/sendig-3-0#Column.TA.EPOCH> ;
  cdiscs:assumptionText "EPOCH is the conceptual basis for comparisons between Arms. EPOCH is not strictly necessary for describing the sequence of Elements in an Arm path. The values of EPOCH should provide a description of a time period that is independent of the value of ARM."^^xsd:string ;
  cdiscs:partOfSection <http://rdf.cdisc.org/std/sendig-3-0#Section.TA.000> ;
.
<http://rdf.cdisc.org/std/sendig-3-0#Assumption.TA.000.011>
  rdf:type cdiscs:Assumption ;
  mms:ordinal "11"^^xsd:positiveInteger ;
  cdiscs:about <http://rdf.cdisc.org/std/sendig-3-0#Column.TA.ARM> ;
  cdiscs:about <http://rdf.cdisc.org/std/sendig-3-0#Column.TA.ELEMENT> ;
  cdiscs:about <http://rdf.cdisc.org/std/sendig-3-0#Column.TA.EPOCH> ;
  cdiscs:assumptionText "EPOCH should be assigned in such a way that Elements from different Arms with the same value of EPOCH are comparable in some sense (e.g., EPOCH = \"Treatment,\" where specific treatments may be different across Arms but the subjects are all being treated in some manner)."^^xsd:string ;
  cdiscs:partOfSection <http://rdf.cdisc.org/std/sendig-3-0#Section.TA.000> ;
  cdiscs:partOfSection <http://rdf.cdisc.org/std/sendig-3-0#Section.TX.000> ;
.
<http://rdf.cdisc.org/std/sendig-3-0#Assumption.TE.000.001>
  rdf:type cdiscs:Assumption ;
  mms:ordinal "1"^^xsd:positiveInteger ;
  cdiscs:about <http://rdf.cdisc.org/std/sendig-3-0#Table.TE> ;
  cdiscs:assumptionText "Elements are the building blocks of Arms. Arms consisting of Elements are the paths subjects will follow throughout a trial. All Elements are related to study treatment. Therefore, an Element is defined by the treatment (or lack of treatment) to be administered to subjects during the Element, as well as the planned duration or start/end rules of the Element."^^xsd:string ;
  cdiscs:partOfSection <http://rdf.cdisc.org/std/sendig-3-0#Section.TE.000> ;
.
<http://rdf.cdisc.org/std/sendig-3-0#Assumption.TE.000.002>
  rdf:type cdiscs:Assumption ;
  mms:ordinal "2"^^xsd:positiveInteger ;
  cdiscs:about <http://rdf.cdisc.org/std/sendig-3-0#Column.TE.ELEMENT> ;
  cdiscs:about <http://rdf.cdisc.org/std/sendig-3-0#Column.TE.ETCD> ;
  cdiscs:about <http://rdf.cdisc.org/std/sendig-3-0#Column.TE.TEENRL> ;
  cdiscs:about <http://rdf.cdisc.org/std/sendig-3-0#Column.TE.TESTRL> ;
  cdiscs:assumptionText "Elements with different start and end rules are different Elements and must be represented as unique values in ELEMENT and ETCD (i.e., Elements involving the same treatment but different durations are different Elements). The same applies to nontreatment Elements (e.g., a washout with a fixed duration of 14 days is different from a washout which ends after 7 days if drug cannot be detected in a blood sample or after 14 days if drug can be detected in a blood sample)."^^xsd:string ;
  cdiscs:partOfSection <http://rdf.cdisc.org/std/sendig-3-0#Section.TE.000> ;
.
<http://rdf.cdisc.org/std/sendig-3-0#Assumption.TE.000.003>
  rdf:type cdiscs:Assumption ;
  mms:ordinal "3"^^xsd:positiveInteger ;
  cdiscs:about <http://rdf.cdisc.org/std/sendig-3-0#Column.TE.ELEMENT> ;
  cdiscs:about <http://rdf.cdisc.org/std/sendig-3-0#Column.TE.ETCD> ;
  cdiscs:assumptionText "Additional factors beyond treatment and start/end rule do not distinguish separate Elements. For example, a restricted vs. ad libitum diet for the same treatment does not necessarily imply different treatment Elements for the subjects experiencing these conditions, even though the subjects may be analyzed differently or be assigned to different Groups or Trial Sets."^^xsd:string ;
  cdiscs:partOfSection <http://rdf.cdisc.org/std/sendig-3-0#Section.TE.000> ;
.
<http://rdf.cdisc.org/std/sendig-3-0#Assumption.TE.000.004>
  rdf:type cdiscs:Assumption ;
  mms:ordinal "4"^^xsd:positiveInteger ;
  cdiscs:about <http://rdf.cdisc.org/std/sendig-3-0#Column.TE.ELEMENT> ;
  cdiscs:about <http://rdf.cdisc.org/std/sendig-3-0#Column.TE.ETCD> ;
  cdiscs:assumptionText "Elements often appear in more than one Arm or Epoch and can be re-used within the same Arm or Epoch and across Arms and Epochs. Therefore, it is not recommended that the values of ETCD and ELEMENT refer to Arms or Epochs."^^xsd:string ;
  cdiscs:partOfSection <http://rdf.cdisc.org/std/sendig-3-0#Section.TE.000> ;
.
<http://rdf.cdisc.org/std/sendig-3-0#Assumption.TE.000.005>
  rdf:type cdiscs:Assumption ;
  mms:ordinal "5"^^xsd:positiveInteger ;
  cdiscs:about <http://rdf.cdisc.org/std/sendig-3-0#Column.TE.ELEMENT> ;
  cdiscs:assumptionText "There are no gaps between Elements. The instant one Element ends, the next Element begins. A subject spends no time \"between\" Elements."^^xsd:string ;
  cdiscs:partOfSection <http://rdf.cdisc.org/std/sendig-3-0#Section.TE.000> ;
.
<http://rdf.cdisc.org/std/sendig-3-0#Assumption.TE.000.006>
  rdf:type cdiscs:Assumption ;
  mms:ordinal "6"^^xsd:positiveInteger ;
  cdiscs:about <http://rdf.cdisc.org/std/sendig-3-0#Column.TE.ELEMENT> ;
  cdiscs:assumptionText "The ELEMENT variable contains the Description of the Element and often indicates the treatment being administered during an Element. If no treatment is administered, as is often the case with a screening Element, the other activities that define this period of time, as related to a treatment Element, become the value of ELEMENT (e.g., \"Screening,\" \"Recovery,\" \"Washout,\" where screening, recovery, and washout all take place within the context of the treatment Element)."^^xsd:string ;
  cdiscs:partOfSection <http://rdf.cdisc.org/std/sendig-3-0#Section.TE.000> ;
.
<http://rdf.cdisc.org/std/sendig-3-0#Assumption.TE.000.007>
  rdf:type cdiscs:Assumption ;
  mms:ordinal "7"^^xsd:positiveInteger ;
  cdiscs:about <http://rdf.cdisc.org/std/sendig-3-0#Column.TE.ELEMENT> ;
  cdiscs:assumptionText "For treatment Elements, the ELEMENT variable may include the following information (if appropriate for the Element): Treatment Amount, Treatment Frequency, and Total Daily Dose, if different from Treatment Amount."^^xsd:string ;
  cdiscs:partOfSection <http://rdf.cdisc.org/std/sendig-3-0#Section.TE.000> ;
.
<http://rdf.cdisc.org/std/sendig-3-0#Assumption.TE.000.008>
  rdf:type cdiscs:Assumption ;
  mms:ordinal "8"^^xsd:positiveInteger ;
  cdiscs:about <http://rdf.cdisc.org/std/sendig-3-0#Column.TE.TESTRL> ;
  cdiscs:assumptionText "TESTRL is the Rule that defines the Start of Element. TESTRL identifies the event that marks the transition into an Element. For Elements that involve treatment, TESTRL is usually populated with a value that indicates treatment administration."^^xsd:string ;
  cdiscs:partOfSection <http://rdf.cdisc.org/std/sendig-3-0#Section.TE.000> ;
.
<http://rdf.cdisc.org/std/sendig-3-0#Assumption.TE.000.009>
  rdf:type cdiscs:Assumption ;
  mms:ordinal "9"^^xsd:positiveInteger ;
  cdiscs:about <http://rdf.cdisc.org/std/sendig-3-0#Column.TA.ARM> ;
  cdiscs:about <http://rdf.cdisc.org/std/sendig-3-0#Column.TE.TESTRL> ;
  cdiscs:assumptionText "The start of the study for a particular Arm is defined by the value of TESTRL for the first Element within that ARM."^^xsd:string ;
  cdiscs:partOfSection <http://rdf.cdisc.org/std/sendig-3-0#Section.TE.000> ;
.
<http://rdf.cdisc.org/std/sendig-3-0#Assumption.TE.000.010>
  rdf:type cdiscs:Assumption ;
  mms:ordinal "10"^^xsd:positiveInteger ;
  cdiscs:about <http://rdf.cdisc.org/std/sendig-3-0#Column.SE.ELEMENT> ;
  cdiscs:about <http://rdf.cdisc.org/std/sendig-3-0#Column.SE.SESTDTC> ;
  cdiscs:about <http://rdf.cdisc.org/std/sendig-3-0#Column.TE.ELEMENT> ;
  cdiscs:about <http://rdf.cdisc.org/std/sendig-3-0#Column.TE.TESTRL> ;
  cdiscs:assumptionText "TESTRL for a treatment Element may be thought of as active while the start rule for a nontreatment Element, particularly a recovery or wash-out Element, may be passive. The start of a treatment Element will not occur until a dose is given, no matter how long that dose is delayed. Note that the date/time of the event that starts an Element, which is described in TESTRL, will be used to populate the SESTDTC date/times in the Subject Elements dataset. Therefore, the TESTRL should refer to a date/time which will be captured during the course of the study."^^xsd:string ;
  cdiscs:partOfSection <http://rdf.cdisc.org/std/sendig-3-0#Section.TE.000> ;
.
<http://rdf.cdisc.org/std/sendig-3-0#Assumption.TE.000.011>
  rdf:type cdiscs:Assumption ;
  mms:ordinal "11"^^xsd:positiveInteger ;
  cdiscs:about <http://rdf.cdisc.org/std/sendig-3-0#Column.TE.TEENRL> ;
  cdiscs:about <http://rdf.cdisc.org/std/sendig-3-0#Column.TE.TESTRL> ;
  cdiscs:assumptionText "TESTRL and TEENRL should be expressed without referring to Arm or Epoch."^^xsd:string ;
  cdiscs:partOfSection <http://rdf.cdisc.org/std/sendig-3-0#Section.TE.000> ;
.
<http://rdf.cdisc.org/std/sendig-3-0#Assumption.TE.000.012>
  rdf:type cdiscs:Assumption ;
  mms:ordinal "12"^^xsd:positiveInteger ;
  cdiscs:about <http://rdf.cdisc.org/std/sendig-3-0#Column.TE.TEDUR> ;
  cdiscs:about <http://rdf.cdisc.org/std/sendig-3-0#Column.TE.TEENRL> ;
  cdiscs:assumptionText "At least one of TEENRL and TEDUR must be populated. Both may be populated."^^xsd:string ;
  cdiscs:partOfSection <http://rdf.cdisc.org/std/sendig-3-0#Section.TE.000> ;
.
<http://rdf.cdisc.org/std/sendig-3-0#Assumption.TE.000.013>
  rdf:type cdiscs:Assumption ;
  mms:ordinal "13"^^xsd:positiveInteger ;
  cdiscs:about <http://rdf.cdisc.org/std/sendig-3-0#Column.TE.ELEMENT> ;
  cdiscs:about <http://rdf.cdisc.org/std/sendig-3-0#Column.TE.TEENRL> ;
  cdiscs:assumptionText "TEENRL describes the circumstances under which an Element ends, causing subjects to enter into another Element. Element end rules may depend on a variety of conditions. The Trial Arms dataset, not the Trial Elements dataset, describes where the subject moves next; therefore, TEENRL values must be expressed independently of Arms."^^xsd:string ;
  cdiscs:partOfSection <http://rdf.cdisc.org/std/sendig-3-0#Section.TE.000> ;
.
<http://rdf.cdisc.org/std/sendig-3-0#Assumption.TE.000.014>
  rdf:type cdiscs:Assumption ;
  mms:ordinal "14"^^xsd:positiveInteger ;
  cdiscs:about <http://rdf.cdisc.org/std/sendig-3-0#Column.TE.ELEMENT> ;
  cdiscs:about <http://rdf.cdisc.org/std/sendig-3-0#Column.TE.TEDUR> ;
  cdiscs:about <http://rdf.cdisc.org/std/sendig-3-0#Column.TE.TEENRL> ;
  cdiscs:assumptionText "TEDUR always goes hand in hand with starts and stops, but it represents something different than a start or stop, in this case, start rule and end rule of an Element with a fixed duration. TEDUR is expressed in ISO 8601. For example, for an Element with a fixed duration of 6 weeks, the TEDUR variable could be populated with \"P6W.\" TEDUR can be populated either in conjunction with TEENRL for added clarification, or by itself in cases where a value is not populated for TEENRL."^^xsd:string ;
  cdiscs:partOfSection <http://rdf.cdisc.org/std/sendig-3-0#Section.TE.000> ;
.
<http://rdf.cdisc.org/std/sendig-3-0#Assumption.TE.000.015>
  rdf:type cdiscs:Assumption ;
  mms:ordinal "15"^^xsd:positiveInteger ;
  cdiscs:about <http://rdf.cdisc.org/std/sendig-3-0#Column.TE.ELEMENT> ;
  cdiscs:about <http://rdf.cdisc.org/std/sendig-3-0#Column.TE.TESTRL> ;
  cdiscs:assumptionText "For Elements that do not involve treatment, TESTRL can be more difficult to define. For wash-out and recovery Elements, which often follow treatment Elements, the start of the Element may be defined relative to the end of a preceding treatment. For example, a wash-out period might be defined as starting 24 or 48 hours after the last dose of drug for the preceding treatment Element. This type of definition will place constraints on how the Element can be sequenced within the Trial Arms dataset."^^xsd:string ;
  cdiscs:partOfSection <http://rdf.cdisc.org/std/sendig-3-0#Section.TE.000> ;
.
<http://rdf.cdisc.org/std/sendig-3-0#Assumption.TE.000.016>
  rdf:type cdiscs:Assumption ;
  mms:ordinal "16"^^xsd:positiveInteger ;
  cdiscs:about <http://rdf.cdisc.org/std/sendig-3-0#Column.TE.ELEMENT> ;
  cdiscs:assumptionText "Defining a clear starting point for the start of a nontreatment Element that always follows another nontreatment Element can be particularly difficult. The transition may be defined by a decision-making activity such as randomization. For example, every Arm of a study which involves treating disease episodes might start with a screening Element followed by an Element which consists of waiting until a disease episode occurs. The activity that marks the beginning of the wait Element might be randomization."^^xsd:string ;
  cdiscs:partOfSection <http://rdf.cdisc.org/std/sendig-3-0#Section.TE.000> ;
.
<http://rdf.cdisc.org/std/sendig-3-0#Assumption.TF.001.001>
  rdf:type cdiscs:Assumption ;
  mms:ordinal "1"^^xsd:positiveInteger ;
  cdiscs:about <http://rdf.cdisc.org/std/sendig-3-0#Table.TF> ;
  cdiscs:assumptionText "The Tumor Findings domain captures the tumor findings of the study. Records in this domain are a subset of records in the MI domain."^^xsd:string ;
  cdiscs:partOfSection <http://rdf.cdisc.org/std/sendig-3-0#Section.TF.001> ;
.
<http://rdf.cdisc.org/std/sendig-3-0#Assumption.TF.002.001>
  rdf:type cdiscs:Assumption ;
  mms:ordinal "2"^^xsd:positiveInteger ;
  cdiscs:about <http://rdf.cdisc.org/std/sendig-3-0#Table.TF> ;
  cdiscs:assumptionText "The Tumor Findings domain is required for creating the tumor.xpt dataset according to FDA Study Data Specifications."^^xsd:string ;
  cdiscs:partOfSection <http://rdf.cdisc.org/std/sendig-3-0#Section.TF.002> ;
.
<http://rdf.cdisc.org/std/sendig-3-0#Assumption.TF.003.001>
  rdf:type cdiscs:Assumption ;
  mms:ordinal "3"^^xsd:positiveInteger ;
  cdiscs:about <http://rdf.cdisc.org/std/sendig-3-0#Column.CL.CLDTC> ;
  cdiscs:about <http://rdf.cdisc.org/std/sendig-3-0#Column.EX.EXSTDTC> ;
  cdiscs:about <http://rdf.cdisc.org/std/sendig-3-0#Column.TF.TFDETECT> ;
  cdiscs:assumptionText "If the tumor was detected as a clinical sign, then TFDETECT is based off the CL domain variable CLDTC (Start Date/Time of Observation). This is calculated as (CLDTC - EXSTDTC) + 1."^^xsd:string ;
  cdiscs:partOfSection <http://rdf.cdisc.org/std/sendig-3-0#Section.TF.003> ;
.
<http://rdf.cdisc.org/std/sendig-3-0#Assumption.TF.003.002>
  rdf:type cdiscs:Assumption ;
  mms:ordinal "4"^^xsd:positiveInteger ;
  cdiscs:about <http://rdf.cdisc.org/std/sendig-3-0#Column.EX.EXSTDTC> ;
  cdiscs:about <http://rdf.cdisc.org/std/sendig-3-0#Column.PM.PMDTC> ;
  cdiscs:about <http://rdf.cdisc.org/std/sendig-3-0#Column.TF.TFDETECT> ;
  cdiscs:assumptionText "If the tumor was detected as a palpable mass, then TFDETECT is based off the PM domain variable PMDTC (Start Date/Time of Observation). This is calculated as (PMDTC - EXSTDTC) + 1."^^xsd:string ;
  cdiscs:partOfSection <http://rdf.cdisc.org/std/sendig-3-0#Section.TF.003> ;
.
<http://rdf.cdisc.org/std/sendig-3-0#Assumption.TF.003.003>
  rdf:type cdiscs:Assumption ;
  mms:ordinal "5"^^xsd:positiveInteger ;
  cdiscs:about <http://rdf.cdisc.org/std/sendig-3-0#Column.DS.DSSTDTC> ;
  cdiscs:about <http://rdf.cdisc.org/std/sendig-3-0#Column.EX.EXSTDTC> ;
  cdiscs:about <http://rdf.cdisc.org/std/sendig-3-0#Column.TF.TFDETECT> ;
  cdiscs:assumptionText "c. If the tumor was initially detected during necropsy (the MA domain), then TFDETECT is based off the DS domain variable DSSTDTC (Date/Time ofDisposition). This is calculated as (DSSTDTC - EXSTDTC) + 1."^^xsd:string ;
  cdiscs:partOfSection <http://rdf.cdisc.org/std/sendig-3-0#Section.TF.003> ;
.
<http://rdf.cdisc.org/std/sendig-3-0#Assumption.TF.003.004>
  rdf:type cdiscs:Assumption ;
  mms:ordinal "6"^^xsd:positiveInteger ;
  cdiscs:about <http://rdf.cdisc.org/std/sendig-3-0#Column.DS.DSSTDTC> ;
  cdiscs:about <http://rdf.cdisc.org/std/sendig-3-0#Column.EX.EXSTDTC> ;
  cdiscs:about <http://rdf.cdisc.org/std/sendig-3-0#Column.TF.TFDETECT> ;
  cdiscs:assumptionText "d. If the tumor was initially detected during histopathology examination (the MI domain), then TFDETECT is based off the DS domain variable DSSTDTC (Date/Time of Disposition). This is calculated as: (DSSTDTC - EXSTDTC) + 1."^^xsd:string ;
  cdiscs:partOfSection <http://rdf.cdisc.org/std/sendig-3-0#Section.TF.003> ;
.
<http://rdf.cdisc.org/std/sendig-3-0#Assumption.TF.004.001>
  rdf:type cdiscs:Assumption ;
  mms:ordinal "7"^^xsd:positiveInteger ;
  cdiscs:about <http://rdf.cdisc.org/std/sendig-3-0#Column.TF.TFSPID> ;
  cdiscs:assumptionText "TFSPID variable is intended to reflect the mass identification. This variable should be used to link in-life findings with pathology findings. For a carcinogenicity study, the mass identifier in --SPID should be consistent across domains (CL, PM, MA, MI, and TF)."^^xsd:string ;
  cdiscs:partOfSection <http://rdf.cdisc.org/std/sendig-3-0#Section.TF.004> ;
.
<http://rdf.cdisc.org/std/sendig-3-0#Assumption.TF.005.001>
  rdf:type cdiscs:Assumption ;
  mms:ordinal "8"^^xsd:positiveInteger ;
  cdiscs:about <http://rdf.cdisc.org/std/sendig-3-0#Table.TF> ;
  cdiscs:assumptionText "These variables are generally not used for this domain: --OBJ, --POS, --ORRESU, --ORNRLO, --ORNRHI, --BODSYS, --MODIFY, --STRESN, --STRESU, --STNRLO, --STNRHI, --STNRC, --NRIND, --LOINC, --LOC, --BLFL, --DRVFL, --LLOQ."^^xsd:string ;
  cdiscs:partOfSection <http://rdf.cdisc.org/std/sendig-3-0#Section.TF.005> ;
.
<http://rdf.cdisc.org/std/sendig-3-0#Assumption.TF.006.001>
  rdf:type cdiscs:Assumption ;
  mms:ordinal "9"^^xsd:positiveInteger ;
  cdiscs:about <http://rdf.cdisc.org/std/sendig-3-0#Table.TF> ;
  cdiscs:assumptionText "These Timing variables are generally not used for this domain: VISITDY, TAETORD, EPOCH, --STDTC, --ENDTC, --STDY, --ENDY, --DUR, --TPT, --TPTNUM, --ELTM, --TPTREF, --RFTDTC, --STRF, --ENRF, --EVLINT, --STRTPT, --ENRTPT, --STTPT, --ENTPT."^^xsd:string ;
  cdiscs:partOfSection <http://rdf.cdisc.org/std/sendig-3-0#Section.TF.006> ;
.
<http://rdf.cdisc.org/std/sendig-3-0#Assumption.TS.000.001>
  rdf:type cdiscs:Assumption ;
  mms:ordinal "1"^^xsd:positiveInteger ;
  cdiscs:about <http://rdf.cdisc.org/std/sendig-3-0#Table.TS> ;
  cdiscs:assumptionText "The intent of the Trial Summary domain is to provide a summary of the study information in dataset format. This is not subject level data."^^xsd:string ;
  cdiscs:partOfSection <http://rdf.cdisc.org/std/sendig-3-0#Section.TS.000> ;
.
<http://rdf.cdisc.org/std/sendig-3-0#Assumption.TS.000.002>
  rdf:type cdiscs:Assumption ;
  mms:ordinal "2"^^xsd:positiveInteger ;
  cdiscs:about <http://rdf.cdisc.org/std/sendig-3-0#Column.TS.TSPARM> ;
  cdiscs:about <http://rdf.cdisc.org/std/sendig-3-0#Column.TS.TSPARMCD> ;
  cdiscs:assumptionText "A list of example controlled terms for TSPARM and TSPARMCD, and whether they should be included in a submission, can be found in Table 7.6.3. These controlled terms are \"Draft\" and have been developed for pilot purposes. These controlled terms will not be final until they have been approved through the CDISC controlled vocabulary process."^^xsd:string ;
  cdiscs:partOfSection <http://rdf.cdisc.org/std/sendig-3-0#Section.TS.000> ;
.
<http://rdf.cdisc.org/std/sendig-3-0#Assumption.TS.000.003>
  rdf:type cdiscs:Assumption ;
  mms:ordinal "3"^^xsd:positiveInteger ;
  cdiscs:about <http://rdf.cdisc.org/std/sendig-3-0#Column.TS.TSPARMCD> ;
  cdiscs:about <http://rdf.cdisc.org/std/sendig-3-0#Column.TS.TSVAL> ;
  cdiscs:assumptionText "TSVAL may have controlled terminology, depending on the value of TSPARMCD. The suggested values based upon specific TSPARMCD entries will be documented as \"Draft\" controlled terminology for purposes of the pilot."^^xsd:string ;
  cdiscs:partOfSection <http://rdf.cdisc.org/std/sendig-3-0#Section.TS.000> ;
.
<http://rdf.cdisc.org/std/sendig-3-0#Assumption.TS.000.004>
  rdf:type cdiscs:Assumption ;
  mms:ordinal "4"^^xsd:positiveInteger ;
  cdiscs:about <http://rdf.cdisc.org/std/sendig-3-0#Column.TS.TSVAL> ;
  cdiscs:assumptionText "Trial Summary allows for one TSVAL value to span multiple variables (TSVAL-TSVALn), in order to accommodate values longer than 200 characters.  This is similar to the conventions used in the CO domain to accommodate COVAL values longer than 200 characters. TS and CO are special purpose domains that allow additional TSVAL/COVAL variables to be added to the dataset, in order to accommodate values longer than 200 characters."^^xsd:string ;
  cdiscs:partOfSection <http://rdf.cdisc.org/std/sendig-3-0#Section.TS.000> ;
.
<http://rdf.cdisc.org/std/sendig-3-0#Assumption.TS.000.005>
  rdf:type cdiscs:Assumption ;
  mms:ordinal "5"^^xsd:positiveInteger ;
  cdiscs:about <http://rdf.cdisc.org/std/sendig-3-0#Column.TS.TSPARMCD> ;
  cdiscs:assumptionText "For some types of studies, there will be multiple records in the Trial Summary dataset for a single parameter, such as GLP Type when a study is conducted in such a way that it complies with several GLP Guidances. In this case, when TSPARMCD=GLPTYP there may be two (or more) records for TSVAL, one with the value \"OECD\" and the other with the value \"FDA.\""^^xsd:string ;
  cdiscs:partOfSection <http://rdf.cdisc.org/std/sendig-3-0#Section.TS.000> ;
.
<http://rdf.cdisc.org/std/sendig-3-0#Assumption.TS.000.006>
  rdf:type cdiscs:Assumption ;
  mms:ordinal "6"^^xsd:positiveInteger ;
  cdiscs:about <http://rdf.cdisc.org/std/sendig-3-0#Column.TS.TSGRPID> ;
  cdiscs:about <http://rdf.cdisc.org/std/sendig-3-0#Column.TS.TSPARMCD> ;
  cdiscs:assumptionText "Use TSGRPID for linking together multiple parameters (e.g., assign a TSGRPID to show a relationship between multiple species to multiple strains, or assign a TSGRPID to show a relationship between several laboratory sites and locations and individual investigators). Note that any parameters with the same GRPID are related."^^xsd:string ;
  cdiscs:partOfSection <http://rdf.cdisc.org/std/sendig-3-0#Section.TS.000> ;
.
<http://rdf.cdisc.org/std/sendig-3-0#Assumption.TS.000.007>
  rdf:type cdiscs:Assumption ;
  mms:ordinal "7"^^xsd:positiveInteger ;
  cdiscs:about <http://rdf.cdisc.org/std/sendig-3-0#Column.TS.TSPARMCD> ;
  cdiscs:about <http://rdf.cdisc.org/std/sendig-3-0#Column.TS.TSSEQ> ;
  cdiscs:assumptionText "The TSSEQ variable is a unique identifier for each record and is Required to identify each record as unique in cases where the same TSPARMCD is used within the dataset. The TSSEQ variable must be populated for all records within the TS dataset. In cases where a TSPARMCD value is only used once, TSSEQ may equal '1.' In cases where a TSPARMCD value is used more than once, TSSEQ may equal '1' in the first record where the TSPARMCD value is used, '2' in the second record where the TSPARMCD value is used, '3' in the third record where the TSPARMCD value is used, etc."^^xsd:string ;
  cdiscs:partOfSection <http://rdf.cdisc.org/std/sendig-3-0#Section.TS.000> ;
.
<http://rdf.cdisc.org/std/sendig-3-0#Assumption.TS.000.008>
  rdf:type cdiscs:Assumption ;
  mms:ordinal "8"^^xsd:positiveInteger ;
  cdiscs:about <http://rdf.cdisc.org/std/sendig-3-0#Column.TS.TSPARMCD> ;
  cdiscs:assumptionText "The TSPARMCD values marked as \"Yes\" in the \"Should Include\" column in Section 7.6.3 following the examples should be included in a well-formed TS domain submission. These TSPARMCD values are expected to occur in almost all studies and may be necessary for clear interpretation of the data package."^^xsd:string ;
  cdiscs:partOfSection <http://rdf.cdisc.org/std/sendig-3-0#Section.TS.000> ;
.
<http://rdf.cdisc.org/std/sendig-3-0#Assumption.TS.000.009>
  rdf:type cdiscs:Assumption ;
  mms:ordinal "9"^^xsd:positiveInteger ;
  cdiscs:about <http://rdf.cdisc.org/std/sendig-3-0#Column.TS.TSPARMCD> ;
  cdiscs:about <http://rdf.cdisc.org/std/sendig-3-0#Table.TS> ;
  cdiscs:about <http://rdf.cdisc.org/std/sendig-3-0#Table.TX> ;
  cdiscs:assumptionText "Some --PARMCD values are available to both the Trial Summary and Trial Sets domains in order to show the relevant information at the appropriate level. If TSPARMCD values do not differ across Trial Sets, then these should be described in the Trial Summary and need not be in the Trial Set domain."^^xsd:string ;
  cdiscs:partOfSection <http://rdf.cdisc.org/std/sendig-3-0#Section.TS.000> ;
.
<http://rdf.cdisc.org/std/sendig-3-0#Assumption.TX.000.001>
  rdf:type cdiscs:Assumption ;
  mms:ordinal "1"^^xsd:positiveInteger ;
  cdiscs:about <http://rdf.cdisc.org/std/sendig-3-0#Table.TX> ;
  cdiscs:assumptionText "The Trial Sets domain provides the list of distinct sets of subjects having different experimental factors, treatment factors, inherent characteristics, or distinct sponsor designations as specified in the trial design."^^xsd:string ;
  cdiscs:partOfSection <http://rdf.cdisc.org/std/sendig-3-0#Section.TX.000> ;
.
<http://rdf.cdisc.org/std/sendig-3-0#Assumption.TX.000.002>
  rdf:type cdiscs:Assumption ;
  mms:ordinal "2"^^xsd:positiveInteger ;
  cdiscs:about <http://rdf.cdisc.org/std/sendig-3-0#Column.TX.SETCD> ;
  cdiscs:assumptionText "Each Trial Set must be identified by a SETCD which is unique within the trial. The SETCD is assigned by the sponsor."^^xsd:string ;
  cdiscs:partOfSection <http://rdf.cdisc.org/std/sendig-3-0#Section.TX.000> ;
.
<http://rdf.cdisc.org/std/sendig-3-0#Assumption.TX.000.003>
  rdf:type cdiscs:Assumption ;
  mms:ordinal "3"^^xsd:positiveInteger ;
  cdiscs:about <http://rdf.cdisc.org/std/sendig-3-0#Column.TX.TXPARMCD> ;
  cdiscs:assumptionText "Each Trial Set should have a SPGRPCD value assigned in TXPARMCD. In many cases, more than one Trial Set may be assigned the same group number in the protocol. The inclusion of this parameter facilitates the ability to reference information in the protocol provided and as part of the submission."^^xsd:string ;
  cdiscs:partOfSection <http://rdf.cdisc.org/std/sendig-3-0#Section.TX.000> ;
.
<http://rdf.cdisc.org/std/sendig-3-0#Assumption.TX.000.004>
  rdf:type cdiscs:Assumption ;
  mms:ordinal "4"^^xsd:positiveInteger ;
  cdiscs:about <http://rdf.cdisc.org/std/sendig-3-0#Column.TX.TXPARMCD> ;
  cdiscs:assumptionText "The SPGRPCD parameter value may be used for sorting when viewing the data. Sponsors should consider utilizing values which will sort alphabetically in an order intended by the sponsor."^^xsd:string ;
  cdiscs:partOfSection <http://rdf.cdisc.org/std/sendig-3-0#Section.TX.000> ;
.
<http://rdf.cdisc.org/std/sendig-3-0#Assumption.TX.000.005>
  rdf:type cdiscs:Assumption ;
  mms:ordinal "5"^^xsd:positiveInteger ;
  cdiscs:about <http://rdf.cdisc.org/std/sendig-3-0#Column.TX.SETCD> ;
  cdiscs:assumptionText "Trial Sets should be designed such that each individual subject shall be planned to participate in one and only one Trial Set."^^xsd:string ;
  cdiscs:partOfSection <http://rdf.cdisc.org/std/sendig-3-0#Section.TX.000> ;
.
<http://rdf.cdisc.org/std/sendig-3-0#Assumption.TX.000.006>
  rdf:type cdiscs:Assumption ;
  mms:ordinal "6"^^xsd:positiveInteger ;
  cdiscs:about <http://rdf.cdisc.org/std/sendig-3-0#Column.TA.ARMCD> ;
  cdiscs:about <http://rdf.cdisc.org/std/sendig-3-0#Column.TX.SETCD> ;
  cdiscs:about <http://rdf.cdisc.org/std/sendig-3-0#Column.TX.TXPARMCD> ;
  cdiscs:assumptionText "The ARMCD parameter should be used to associate each Trial Set with a Trial Arm as defined in the Trial Arms table. Each Trial Set should only have one ARMCD parameter, but more than one Trial Set may have the same value of the ARMCD parameter."^^xsd:string ;
  cdiscs:partOfSection <http://rdf.cdisc.org/std/sendig-3-0#Section.TX.000> ;
.
<http://rdf.cdisc.org/std/sendig-3-0#Assumption.TX.000.007>
  rdf:type cdiscs:Assumption ;
  mms:ordinal "7"^^xsd:positiveInteger ;
  cdiscs:about <http://rdf.cdisc.org/std/sendig-3-0#Column.TX.TXPARMCD> ;
  cdiscs:assumptionText "The TXPARMCD list may be extended by the sponsor as needed to provide the information on experimental factors which differentiate this Trial Set."^^xsd:string ;
  cdiscs:partOfSection <http://rdf.cdisc.org/std/sendig-3-0#Section.TX.000> ;
.
<http://rdf.cdisc.org/std/sendig-3-0#Assumption.TX.000.008>
  rdf:type cdiscs:Assumption ;
  mms:ordinal "8"^^xsd:positiveInteger ;
  cdiscs:about <http://rdf.cdisc.org/std/sendig-3-0#Column.TX.SET> ;
  cdiscs:about <http://rdf.cdisc.org/std/sendig-3-0#Column.TX.TXPARM> ;
  cdiscs:about <http://rdf.cdisc.org/std/sendig-3-0#Column.TX.TXPARMCD> ;
  cdiscs:about <http://rdf.cdisc.org/std/sendig-3-0#Column.TX.TXVAL> ;
  cdiscs:assumptionText "In general, each Set should have a distinct combination of TXPARMCD, TXPARM, and TXVAL whenever possible. If two Trial Sets (identified by distinct SETCD values) have the same set of TXPARMCD, TXPARM, and TXVAL entries, the SET variable must contain information which distinguishes the two Trial Sets from each other."^^xsd:string ;
  cdiscs:partOfSection <http://rdf.cdisc.org/std/sendig-3-0#Section.TX.000> ;
.
<http://rdf.cdisc.org/std/sendig-3-0#Assumption.TX.000.009>
  rdf:type cdiscs:Assumption ;
  mms:ordinal "9"^^xsd:positiveInteger ;
  cdiscs:about <http://rdf.cdisc.org/std/sendig-3-0#Column.TX.SETCD> ;
  cdiscs:assumptionText "The sponsor may choose to define subjects of different sexes as distinct Trial Sets if this is appropriate based upon the trial design. Alternatively, if all other parameters are the same, Sets can be defined to contain both sexes under the assumption that it is common practice to analyze male and female subjects separately."^^xsd:string ;
  cdiscs:partOfSection <http://rdf.cdisc.org/std/sendig-3-0#Section.TX.000> ;
.
<http://rdf.cdisc.org/std/sendig-3-0#Assumption.TX.000.010>
  rdf:type cdiscs:Assumption ;
  mms:ordinal "10"^^xsd:positiveInteger ;
  cdiscs:about <http://rdf.cdisc.org/std/sendig-3-0#Column.TX.TXPARMCD> ;
  cdiscs:assumptionText "The TXPARMCD values marked as \"Yes\" in the \"Should Include\" column in Section 7.4.2 should be included in a well-formed TX domain submission. These TXPARMCD values are expected to occur in almost all studies and may be necessary for clear interpretation of the data package."^^xsd:string ;
.
<http://rdf.cdisc.org/std/sendig-3-0#Assumption.TX.000.011>
  rdf:type cdiscs:Assumption ;
  mms:ordinal "11"^^xsd:positiveInteger ;
  cdiscs:about <http://rdf.cdisc.org/std/sendig-3-0#Column.TX.TXPARMCD> ;
  cdiscs:about <http://rdf.cdisc.org/std/sendig-3-0#Table.TS> ;
  cdiscs:about <http://rdf.cdisc.org/std/sendig-3-0#Table.TX> ;
  cdiscs:assumptionText "Some --PARMCD values are available to both the Trial Summary and Trial Sets domains in order to allow for further description of how those values apply to individual Trial Sets. However, if the attributes (TXPARMCD) are identical across Trial Sets, including them in the Trial Summary is sufficient."^^xsd:string ;
.
<http://rdf.cdisc.org/std/sendig-3-0#Assumption.VS.000.001>
  rdf:type cdiscs:Assumption ;
  mms:ordinal "1"^^xsd:positiveInteger ;
  cdiscs:about <http://rdf.cdisc.org/std/sendig-3-0#Table.VS> ;
  cdiscs:assumptionText "The Vital Signs domain is intended to hold vital signs measurements such as, but not limited to, blood pressure, heart rate, respiratory rate, and body temperature."^^xsd:string ;
  cdiscs:partOfSection <http://rdf.cdisc.org/std/sendig-3-0#Section.VS.000> ;
.
<http://rdf.cdisc.org/std/sendig-3-0#Assumption.VS.000.002>
  rdf:type cdiscs:Assumption ;
  mms:ordinal "2"^^xsd:positiveInteger ;
  cdiscs:about <http://rdf.cdisc.org/std/sendig-3-0#Table.VS> ;
  cdiscs:assumptionText "The following qualifiers would not generally be used in VS: --SPEC, --SPCCND, --BODSYS, --FAST, --TOX, --TOXGR, --DTHREL, --OBJ."^^xsd:string ;
  cdiscs:partOfSection <http://rdf.cdisc.org/std/sendig-3-0#Section.VS.000> ;
.
<http://rdf.cdisc.org/std/sendig-3-0#Assumption.VS.000.003>
  rdf:type cdiscs:Assumption ;
  mms:ordinal "3"^^xsd:positiveInteger ;
  cdiscs:about <http://rdf.cdisc.org/std/sendig-3-0#Column.VS.VSDTC> ;
  cdiscs:about <http://rdf.cdisc.org/std/sendig-3-0#Column.VS.VSENDTC> ;
  cdiscs:assumptionText "VSDTC and VSENDTC variables, if applicable, are used as described in Section 4.4.6."^^xsd:string ;
  cdiscs:partOfSection <http://rdf.cdisc.org/std/sendig-3-0#Section.VS.000> ;
.
<http://rdf.cdisc.org/std/sendig-3-0#Column.BG.BGDTC>
  rdf:type mms:DataElement ;
  mms:broader <http://rdf.cdisc.org/std/sdtm-1-2#Timing.--DTC> ;
  mms:context <http://rdf.cdisc.org/std/sendig-3-0#Table.BG> ;
  mms:dataElementDescription "Date/time of the start of the weight interval in ISO 8601 format. This must be populated when BGTESTCD is BWGAINA."^^xsd:string ;
  mms:dataElementLabel "Date/Time Animal Weighed"^^xsd:string ;
  mms:dataElementName "BGDTC"^^xsd:string ;
  mms:dataElementType "xsd:dateTime"^^xsd:anySimpleType ;
  mms:ordinal "16"^^xsd:positiveInteger ;
  cdiscs:controlledTermsOrFormat "ISO 8601"^^xsd:string ;
  cdiscs:dataElementCompliance <http://rdf.cdisc.org/std/sdtm-1-2#Classifier.ExpectedVariable> ;
  cdiscs:dataElementRole <http://rdf.cdisc.org/std/sdtm-1-2#Classifier.TimingVariable> ;
  cdiscs:dataElementType <http://rdf.cdisc.org/std/schema#Classifier.Character> ;
.
<http://rdf.cdisc.org/std/sendig-3-0#Column.BG.BGDY>
  rdf:type mms:DataElement ;
  mms:broader <http://rdf.cdisc.org/std/sdtm-1-2#Timing.--DY> ;
  mms:context <http://rdf.cdisc.org/std/sendig-3-0#Table.BG> ;
  mms:dataElementDescription "Study day of the start of the weight interval, in integer days.  The algorithm for calculations must be relative to the sponsor-defined RFSTDTC variable in the Demographics (DM) domain."^^xsd:string ;
  mms:dataElementLabel "Study Day Animal Weighed"^^xsd:string ;
  mms:dataElementName "BGDY"^^xsd:string ;
  mms:dataElementType "xsd:integer"^^xsd:anySimpleType ;
  mms:ordinal "18"^^xsd:positiveInteger ;
  cdiscs:dataElementCompliance <http://rdf.cdisc.org/std/sdtm-1-2#Classifier.PermissibleVariable> ;
  cdiscs:dataElementRole <http://rdf.cdisc.org/std/sdtm-1-2#Classifier.TimingVariable> ;
  cdiscs:dataElementType <http://rdf.cdisc.org/std/schema#Classifier.Numeric> ;
.
<http://rdf.cdisc.org/std/sendig-3-0#Column.BG.BGELTM>
  rdf:type mms:DataElement ;
  mms:broader <http://rdf.cdisc.org/std/sdtm-1-2#DE.Finding.--ELTM> ;
  mms:context <http://rdf.cdisc.org/std/sendig-3-0#Table.BG> ;
  mms:dataElementDescription "Planned Elapsed time (in ISO 8601) relative to a planned fixed reference (BGTPTREF). This variable is useful where there are repetitive measures. Not a clock time or a date time variable. Examples: -PT15M to represent the period of 15 minutes prior to the reference point indicated by BGTPTREF, or PT8H to represent the period of 8 hours after the reference point indicated by BGTPTREF."^^xsd:string ;
  mms:dataElementLabel "Planned Elapsed Time from Time Point Ref"^^xsd:string ;
  mms:dataElementName "BGELTM"^^xsd:string ;
  mms:dataElementType "xsd:duration"^^xsd:anySimpleType ;
  mms:ordinal "20"^^xsd:positiveInteger ;
  cdiscs:controlledTermsOrFormat "ISO 8601"^^xsd:string ;
  cdiscs:dataElementCompliance <http://rdf.cdisc.org/std/sdtm-1-2#Classifier.PermissibleVariable> ;
  cdiscs:dataElementRole <http://rdf.cdisc.org/std/sdtm-1-2#Classifier.TimingVariable> ;
  cdiscs:dataElementType <http://rdf.cdisc.org/std/schema#Classifier.Character> ;
.
<http://rdf.cdisc.org/std/sendig-3-0#Column.BG.BGENDTC>
  rdf:type mms:DataElement ;
  mms:broader <http://rdf.cdisc.org/std/sdtm-1-2#Timing.--ENDTC> ;
  mms:context <http://rdf.cdisc.org/std/sendig-3-0#Table.BG> ;
  mms:dataElementDescription "Date/time of the end of the weight interval in ISO 8601 format. This must be populated when BGTESTCD is BWGAINA."^^xsd:string ;
  mms:dataElementLabel "End Date/Time Animal Weighed"^^xsd:string ;
  mms:dataElementName "BGENDTC"^^xsd:string ;
  mms:dataElementType "xsd:dateTime"^^xsd:anySimpleType ;
  mms:ordinal "17"^^xsd:positiveInteger ;
  cdiscs:controlledTermsOrFormat "ISO 8601"^^xsd:string ;
  cdiscs:dataElementCompliance <http://rdf.cdisc.org/std/sdtm-1-2#Classifier.ExpectedVariable> ;
  cdiscs:dataElementRole <http://rdf.cdisc.org/std/sdtm-1-2#Classifier.TimingVariable> ;
  cdiscs:dataElementType <http://rdf.cdisc.org/std/schema#Classifier.Character> ;
.
<http://rdf.cdisc.org/std/sendig-3-0#Column.BG.BGENDY>
  rdf:type mms:DataElement ;
  mms:broader <http://rdf.cdisc.org/std/sdtm-1-2#Timing.--ENDY> ;
  mms:context <http://rdf.cdisc.org/std/sendig-3-0#Table.BG> ;
  mms:dataElementDescription "Study day of the end of the weight interval, in integer days.  The algorithm for calculations must be relative to the sponsor-defined RFSTDTC variable in the Demographics (DM) domain."^^xsd:string ;
  mms:dataElementLabel "Study Day of End of Weight Interval"^^xsd:string ;
  mms:dataElementName "BGENDY"^^xsd:string ;
  mms:dataElementType "xsd:integer"^^xsd:anySimpleType ;
  mms:ordinal "19"^^xsd:positiveInteger ;
  cdiscs:dataElementCompliance <http://rdf.cdisc.org/std/sdtm-1-2#Classifier.PermissibleVariable> ;
  cdiscs:dataElementRole <http://rdf.cdisc.org/std/sdtm-1-2#Classifier.TimingVariable> ;
  cdiscs:dataElementType <http://rdf.cdisc.org/std/schema#Classifier.Numeric> ;
.
<http://rdf.cdisc.org/std/sendig-3-0#Column.BG.BGEXCLFL>
  rdf:type mms:DataElement ;
  mms:broader <http://rdf.cdisc.org/std/sdtm-1-2#DE.Finding.--EXCLFL> ;
  mms:context <http://rdf.cdisc.org/std/sendig-3-0#Table.BG> ;
  mms:dataElementDescription "Y if the result should be excluded from all calculations, otherwise null."^^xsd:string ;
  mms:dataElementLabel "Exclusion Flag"^^xsd:string ;
  mms:dataElementName "BGEXCLFL"^^xsd:string ;
  mms:dataElementType "xsd:string"^^xsd:anySimpleType ;
  mms:dataElementValueDomain sendct:C66742 ;
  mms:ordinal "14"^^xsd:positiveInteger ;
  cdiscs:controlledTermsOrFormat "(NY)"^^xsd:string ;
  cdiscs:dataElementCompliance <http://rdf.cdisc.org/std/sdtm-1-2#Classifier.PermissibleVariable> ;
  cdiscs:dataElementRole <http://rdf.cdisc.org/std/sdtm-1-2#Classifier.RecordQualifier> ;
  cdiscs:dataElementType <http://rdf.cdisc.org/std/schema#Classifier.Character> ;
.
<http://rdf.cdisc.org/std/sendig-3-0#Column.BG.BGORRES>
  rdf:type mms:DataElement ;
  mms:broader <http://rdf.cdisc.org/std/sdtm-1-2#DE.Finding.--ORRES> ;
  mms:context <http://rdf.cdisc.org/std/sendig-3-0#Table.BG> ;
  mms:dataElementDescription "Result of the measurement or finding as originally recorded."^^xsd:string ;
  mms:dataElementLabel "Result or Findings as Collected"^^xsd:string ;
  mms:dataElementName "BGORRES"^^xsd:string ;
  mms:dataElementType "xsd:string"^^xsd:anySimpleType ;
  mms:ordinal "7"^^xsd:positiveInteger ;
  cdiscs:dataElementCompliance <http://rdf.cdisc.org/std/sdtm-1-2#Classifier.ExpectedVariable> ;
  cdiscs:dataElementRole <http://rdf.cdisc.org/std/sdtm-1-2#Classifier.ResultQualifier> ;
  cdiscs:dataElementType <http://rdf.cdisc.org/std/schema#Classifier.Character> ;
.
<http://rdf.cdisc.org/std/sendig-3-0#Column.BG.BGORRESU>
  rdf:type mms:DataElement ;
  mms:broader <http://rdf.cdisc.org/std/sdtm-1-2#DE.Finding.--ORRESU> ;
  mms:context <http://rdf.cdisc.org/std/sendig-3-0#Table.BG> ;
  mms:dataElementDescription "The unit for the original result. The unit of the original result should be mapped to a synonymous unit on the Controlled Terminology list."^^xsd:string ;
  mms:dataElementLabel "Unit of the Original Result"^^xsd:string ;
  mms:dataElementName "BGORRESU"^^xsd:string ;
  mms:dataElementType "xsd:string"^^xsd:anySimpleType ;
  mms:dataElementValueDomain sendct:C71620 ;
  mms:ordinal "8"^^xsd:positiveInteger ;
  cdiscs:controlledTermsOrFormat "(UNIT)"^^xsd:string ;
  cdiscs:dataElementCompliance <http://rdf.cdisc.org/std/sdtm-1-2#Classifier.ExpectedVariable> ;
  cdiscs:dataElementRole <http://rdf.cdisc.org/std/sdtm-1-2#Classifier.VariableQualifier> ;
  cdiscs:dataElementType <http://rdf.cdisc.org/std/schema#Classifier.Character> ;
.
<http://rdf.cdisc.org/std/sendig-3-0#Column.BG.BGREASEX>
  rdf:type mms:DataElement ;
  mms:broader <http://rdf.cdisc.org/std/sdtm-1-2#DE.Finding.--REASEX> ;
  mms:context <http://rdf.cdisc.org/std/sendig-3-0#Table.BG> ;
  mms:dataElementDescription "The reason the result should be excluded from all calculations. Used only when BGEXCLFL is Y."^^xsd:string ;
  mms:dataElementLabel "Reason for Exclusion"^^xsd:string ;
  mms:dataElementName "BGREASEX"^^xsd:string ;
  mms:dataElementType "xsd:string"^^xsd:anySimpleType ;
  mms:ordinal "15"^^xsd:positiveInteger ;
  cdiscs:dataElementCompliance <http://rdf.cdisc.org/std/sdtm-1-2#Classifier.PermissibleVariable> ;
  cdiscs:dataElementRole <http://rdf.cdisc.org/std/sdtm-1-2#Classifier.RecordQualifier> ;
  cdiscs:dataElementType <http://rdf.cdisc.org/std/schema#Classifier.Character> ;
.
<http://rdf.cdisc.org/std/sendig-3-0#Column.BG.BGREASND>
  rdf:type mms:DataElement ;
  mms:broader <http://rdf.cdisc.org/std/sdtm-1-2#DE.Finding.--REASND> ;
  mms:context <http://rdf.cdisc.org/std/sendig-3-0#Table.BG> ;
  mms:dataElementDescription "Describes why BGSTAT is NOT DONE, such as MISSING BODY WEIGHT."^^xsd:string ;
  mms:dataElementLabel "Reason Not Done"^^xsd:string ;
  mms:dataElementName "BGREASND"^^xsd:string ;
  mms:dataElementType "xsd:string"^^xsd:anySimpleType ;
  mms:ordinal "13"^^xsd:positiveInteger ;
  cdiscs:dataElementCompliance <http://rdf.cdisc.org/std/sdtm-1-2#Classifier.PermissibleVariable> ;
  cdiscs:dataElementRole <http://rdf.cdisc.org/std/sdtm-1-2#Classifier.RecordQualifier> ;
  cdiscs:dataElementType <http://rdf.cdisc.org/std/schema#Classifier.Character> ;
.
<http://rdf.cdisc.org/std/sendig-3-0#Column.BG.BGRFTDTC>
  rdf:type mms:DataElement ;
  mms:broader <http://rdf.cdisc.org/std/sdtm-1-2#DE.Finding.--RFTDTC> ;
  mms:context <http://rdf.cdisc.org/std/sendig-3-0#Table.BG> ;
  mms:dataElementDescription "Date/time of the reference time point defined by BGTPTREF."^^xsd:string ;
  mms:dataElementLabel "Date/Time of Reference Time Point"^^xsd:string ;
  mms:dataElementName "BGRFTDTC"^^xsd:string ;
  mms:dataElementType "xsd:dateTime"^^xsd:anySimpleType ;
  mms:ordinal "22"^^xsd:positiveInteger ;
  cdiscs:controlledTermsOrFormat "ISO 8601"^^xsd:string ;
  cdiscs:dataElementCompliance <http://rdf.cdisc.org/std/sdtm-1-2#Classifier.PermissibleVariable> ;
  cdiscs:dataElementRole <http://rdf.cdisc.org/std/sdtm-1-2#Classifier.TimingVariable> ;
  cdiscs:dataElementType <http://rdf.cdisc.org/std/schema#Classifier.Character> ;
.
<http://rdf.cdisc.org/std/sendig-3-0#Column.BG.BGSEQ>
  rdf:type mms:DataElement ;
  mms:broader <http://rdf.cdisc.org/std/sdtm-1-2#DE.Identifier.--SEQ> ;
  mms:context <http://rdf.cdisc.org/std/sendig-3-0#Table.BG> ;
  mms:dataElementDescription "Sequence number given to ensure uniqueness of subject records within a domain. May be any valid number."^^xsd:string ;
  mms:dataElementLabel "Sequence Number"^^xsd:string ;
  mms:dataElementName "BGSEQ"^^xsd:string ;
  mms:dataElementType "xsd:decimal"^^xsd:anySimpleType ;
  mms:ordinal "4"^^xsd:positiveInteger ;
  cdiscs:dataElementCompliance <http://rdf.cdisc.org/std/sdtm-1-2#Classifier.RequiredVariable> ;
  cdiscs:dataElementRole <http://rdf.cdisc.org/std/sdtm-1-2#Classifier.IdentifierVariable> ;
  cdiscs:dataElementType <http://rdf.cdisc.org/std/schema#Classifier.Numeric> ;
.
<http://rdf.cdisc.org/std/sendig-3-0#Column.BG.BGSTAT>
  rdf:type mms:DataElement ;
  mms:broader <http://rdf.cdisc.org/std/sdtm-1-2#DE.Finding.--STAT> ;
  mms:context <http://rdf.cdisc.org/std/sendig-3-0#Table.BG> ;
  mms:dataElementDescription "Used to indicate when a result is missing. Should be null if a result exists in BGORRES."^^xsd:string ;
  mms:dataElementLabel "Examination  Status"^^xsd:string ;
  mms:dataElementName "BGSTAT"^^xsd:string ;
  mms:dataElementType "xsd:string"^^xsd:anySimpleType ;
  mms:dataElementValueDomain sendct:C66789 ;
  mms:ordinal "12"^^xsd:positiveInteger ;
  cdiscs:controlledTermsOrFormat "(ND)"^^xsd:string ;
  cdiscs:dataElementCompliance <http://rdf.cdisc.org/std/sdtm-1-2#Classifier.PermissibleVariable> ;
  cdiscs:dataElementRole <http://rdf.cdisc.org/std/sdtm-1-2#Classifier.RecordQualifier> ;
  cdiscs:dataElementType <http://rdf.cdisc.org/std/schema#Classifier.Character> ;
.
<http://rdf.cdisc.org/std/sendig-3-0#Column.BG.BGSTRESC>
  rdf:type mms:DataElement ;
  mms:broader <http://rdf.cdisc.org/std/sdtm-1-2#DE.Finding.--STRESC> ;
  mms:context <http://rdf.cdisc.org/std/sendig-3-0#Table.BG> ;
  mms:dataElementDescription "Contains the result value for all findings or derived from BGORRES in a standard format or standard units. BGSTRESC should store all results or findings in character format; if results are numeric, they should also be stored in numeric format in BGSTRESN."^^xsd:string ;
  mms:dataElementLabel "Standardized Result in Character Format"^^xsd:string ;
  mms:dataElementName "BGSTRESC"^^xsd:string ;
  mms:dataElementType "xsd:string"^^xsd:anySimpleType ;
  mms:ordinal "9"^^xsd:positiveInteger ;
  cdiscs:dataElementCompliance <http://rdf.cdisc.org/std/sdtm-1-2#Classifier.ExpectedVariable> ;
  cdiscs:dataElementRole <http://rdf.cdisc.org/std/sdtm-1-2#Classifier.ResultQualifier> ;
  cdiscs:dataElementType <http://rdf.cdisc.org/std/schema#Classifier.Character> ;
.
<http://rdf.cdisc.org/std/sendig-3-0#Column.BG.BGSTRESN>
  rdf:type mms:DataElement ;
  mms:broader <http://rdf.cdisc.org/std/sdtm-1-2#DE.Finding.--STRESN> ;
  mms:context <http://rdf.cdisc.org/std/sendig-3-0#Table.BG> ;
  mms:dataElementDescription "Used for results or findings in standard format; contains the numeric form of BGSTRESC. BGSTRESN should store all numeric test results or findings."^^xsd:string ;
  mms:dataElementLabel "Standardized Result in Numeric Format"^^xsd:string ;
  mms:dataElementName "BGSTRESN"^^xsd:string ;
  mms:dataElementType "xsd:decimal"^^xsd:anySimpleType ;
  mms:ordinal "10"^^xsd:positiveInteger ;
  cdiscs:dataElementCompliance <http://rdf.cdisc.org/std/sdtm-1-2#Classifier.ExpectedVariable> ;
  cdiscs:dataElementRole <http://rdf.cdisc.org/std/sdtm-1-2#Classifier.ResultQualifier> ;
  cdiscs:dataElementType <http://rdf.cdisc.org/std/schema#Classifier.Numeric> ;
.
<http://rdf.cdisc.org/std/sendig-3-0#Column.BG.BGSTRESU>
  rdf:type mms:DataElement ;
  mms:broader <http://rdf.cdisc.org/std/sdtm-1-2#DE.Finding.--STRESU> ;
  mms:context <http://rdf.cdisc.org/std/sendig-3-0#Table.BG> ;
  mms:dataElementDescription "Standardized unit used for BGSTRESC or BGSTRESN."^^xsd:string ;
  mms:dataElementLabel "Unit of the Standardized Result"^^xsd:string ;
  mms:dataElementName "BGSTRESU"^^xsd:string ;
  mms:dataElementType "xsd:string"^^xsd:anySimpleType ;
  mms:dataElementValueDomain sendct:C71620 ;
  mms:ordinal "11"^^xsd:positiveInteger ;
  cdiscs:controlledTermsOrFormat "(UNIT)"^^xsd:string ;
  cdiscs:dataElementCompliance <http://rdf.cdisc.org/std/sdtm-1-2#Classifier.ExpectedVariable> ;
  cdiscs:dataElementRole <http://rdf.cdisc.org/std/sdtm-1-2#Classifier.VariableQualifier> ;
  cdiscs:dataElementType <http://rdf.cdisc.org/std/schema#Classifier.Character> ;
.
<http://rdf.cdisc.org/std/sendig-3-0#Column.BG.BGTEST>
  rdf:type mms:DataElement ;
  mms:broader <http://rdf.cdisc.org/std/sdtm-1-2#DE.Finding.--TEST> ;
  mms:context <http://rdf.cdisc.org/std/sendig-3-0#Table.BG> ;
  mms:dataElementDescription "Long name for BGTESTCD. The value in BGTEST cannot be longer than 40 characters."^^xsd:string ;
  mms:dataElementLabel "Test Name"^^xsd:string ;
  mms:dataElementName "BGTEST"^^xsd:string ;
  mms:dataElementType "xsd:string"^^xsd:anySimpleType ;
  mms:dataElementValueDomain sendct:C89959 ;
  mms:ordinal "6"^^xsd:positiveInteger ;
  cdiscs:controlledTermsOrFormat "(BGTEST)"^^xsd:string ;
  cdiscs:dataElementCompliance <http://rdf.cdisc.org/std/sdtm-1-2#Classifier.RequiredVariable> ;
  cdiscs:dataElementRole <http://rdf.cdisc.org/std/sdtm-1-2#Classifier.SynonymQualifier> ;
  cdiscs:dataElementType <http://rdf.cdisc.org/std/schema#Classifier.Character> ;
.
<http://rdf.cdisc.org/std/sendig-3-0#Column.BG.BGTESTCD>
  rdf:type mms:DataElement ;
  mms:broader <http://rdf.cdisc.org/std/sdtm-1-2#DE.Finding.--TESTCD> ;
  mms:context <http://rdf.cdisc.org/std/sendig-3-0#Table.BG> ;
  mms:dataElementDescription "Short name of the measurement, test, or examination described in BGTEST. It can be used as a column name when converting a dataset from a vertical to a horizontal format. The value in BGTESTCD cannot be longer than 8 characters, nor can it start with a number (e.g., \"1TEST\" is not valid). BGTESTCD cannot contain characters other than letters, numbers, or underscores."^^xsd:string ;
  mms:dataElementLabel "Test Short Name"^^xsd:string ;
  mms:dataElementName "BGTESTCD"^^xsd:string ;
  mms:dataElementType "xsd:string"^^xsd:anySimpleType ;
  mms:dataElementValueDomain sendct:C89960 ;
  mms:ordinal "5"^^xsd:positiveInteger ;
  cdiscs:controlledTermsOrFormat "(BGTESTCD)"^^xsd:string ;
  cdiscs:dataElementCompliance <http://rdf.cdisc.org/std/sdtm-1-2#Classifier.RequiredVariable> ;
  cdiscs:dataElementRole <http://rdf.cdisc.org/std/sdtm-1-2#Classifier.TopicVariable> ;
  cdiscs:dataElementType <http://rdf.cdisc.org/std/schema#Classifier.Character> ;
.
<http://rdf.cdisc.org/std/sendig-3-0#Column.BG.BGTPTREF>
  rdf:type mms:DataElement ;
  mms:broader <http://rdf.cdisc.org/std/sdtm-1-2#DE.Finding.--TPTREF> ;
  mms:context <http://rdf.cdisc.org/std/sendig-3-0#Table.BG> ;
  mms:dataElementDescription "Name of the fixed reference point referred to by BGELTM. Examples: START OF WEEK ONE, START OF MONTH ONE."^^xsd:string ;
  mms:dataElementLabel "Time Point Reference"^^xsd:string ;
  mms:dataElementName "BGTPTREF"^^xsd:string ;
  mms:dataElementType "xsd:string"^^xsd:anySimpleType ;
  mms:ordinal "21"^^xsd:positiveInteger ;
  cdiscs:dataElementCompliance <http://rdf.cdisc.org/std/sdtm-1-2#Classifier.PermissibleVariable> ;
  cdiscs:dataElementRole <http://rdf.cdisc.org/std/sdtm-1-2#Classifier.TimingVariable> ;
  cdiscs:dataElementType <http://rdf.cdisc.org/std/schema#Classifier.Character> ;
.
<http://rdf.cdisc.org/std/sendig-3-0#Column.BG.DOMAIN>
  rdf:type mms:DataElement ;
  mms:broader <http://rdf.cdisc.org/std/sdtm-1-2#DE.Identifier.DOMAIN> ;
  mms:context <http://rdf.cdisc.org/std/sendig-3-0#Table.BG> ;
  mms:dataElementDescription "Two-character abbreviation for the domain."^^xsd:string ;
  mms:dataElementLabel "Domain Abbreviation"^^xsd:string ;
  mms:dataElementName "DOMAIN"^^xsd:string ;
  mms:dataElementType "xsd:string"^^xsd:anySimpleType ;
  mms:ordinal "2"^^xsd:positiveInteger ;
  cdiscs:controlledTermsOrFormat "BG"^^xsd:string ;
  cdiscs:dataElementCompliance <http://rdf.cdisc.org/std/sdtm-1-2#Classifier.RequiredVariable> ;
  cdiscs:dataElementRole <http://rdf.cdisc.org/std/sdtm-1-2#Classifier.IdentifierVariable> ;
  cdiscs:dataElementType <http://rdf.cdisc.org/std/schema#Classifier.Character> ;
.
<http://rdf.cdisc.org/std/sendig-3-0#Column.BG.STUDYID>
  rdf:type mms:DataElement ;
  mms:broader <http://rdf.cdisc.org/std/sdtm-1-2#DE.Identifier.STUDYID> ;
  mms:context <http://rdf.cdisc.org/std/sendig-3-0#Table.BG> ;
  mms:dataElementDescription "Unique identifier for a study."^^xsd:string ;
  mms:dataElementLabel "Study Identifier"^^xsd:string ;
  mms:dataElementName "STUDYID"^^xsd:string ;
  mms:dataElementType "xsd:string"^^xsd:anySimpleType ;
  mms:ordinal "1"^^xsd:positiveInteger ;
  cdiscs:dataElementCompliance <http://rdf.cdisc.org/std/sdtm-1-2#Classifier.RequiredVariable> ;
  cdiscs:dataElementRole <http://rdf.cdisc.org/std/sdtm-1-2#Classifier.IdentifierVariable> ;
  cdiscs:dataElementType <http://rdf.cdisc.org/std/schema#Classifier.Character> ;
.
<http://rdf.cdisc.org/std/sendig-3-0#Column.BG.USUBJID>
  rdf:type mms:DataElement ;
  mms:broader <http://rdf.cdisc.org/std/sdtm-1-2#DE.Identifier.USUBJID> ;
  mms:context <http://rdf.cdisc.org/std/sendig-3-0#Table.BG> ;
  mms:dataElementDescription "Identifier used to uniquely identify a subject across all studies for all applications or submissions involving the product."^^xsd:string ;
  mms:dataElementLabel "Unique Subject Identifier"^^xsd:string ;
  mms:dataElementName "USUBJID"^^xsd:string ;
  mms:dataElementType "xsd:string"^^xsd:anySimpleType ;
  mms:ordinal "3"^^xsd:positiveInteger ;
  cdiscs:dataElementCompliance <http://rdf.cdisc.org/std/sdtm-1-2#Classifier.RequiredVariable> ;
  cdiscs:dataElementRole <http://rdf.cdisc.org/std/sdtm-1-2#Classifier.IdentifierVariable> ;
  cdiscs:dataElementType <http://rdf.cdisc.org/std/schema#Classifier.Character> ;
.
<http://rdf.cdisc.org/std/sendig-3-0#Column.BW.BWBLFL>
  rdf:type mms:DataElement ;
  mms:broader <http://rdf.cdisc.org/std/sdtm-1-2#DE.Finding.--BLFL> ;
  mms:context <http://rdf.cdisc.org/std/sendig-3-0#Table.BW> ;
  mms:dataElementDescription "A baseline indicator may be used to calculate differences or changes from baseline. Value should be Y or null. The baseline flag is sponsor-defined."^^xsd:string ;
  mms:dataElementLabel "Baseline Flag"^^xsd:string ;
  mms:dataElementName "BWBLFL"^^xsd:string ;
  mms:dataElementType "xsd:string"^^xsd:anySimpleType ;
  mms:dataElementValueDomain sendct:C66742 ;
  mms:ordinal "14"^^xsd:positiveInteger ;
  cdiscs:controlledTermsOrFormat "(NY)"^^xsd:string ;
  cdiscs:dataElementCompliance <http://rdf.cdisc.org/std/sdtm-1-2#Classifier.ExpectedVariable> ;
  cdiscs:dataElementRole <http://rdf.cdisc.org/std/sdtm-1-2#Classifier.RecordQualifier> ;
  cdiscs:dataElementType <http://rdf.cdisc.org/std/schema#Classifier.Character> ;
.
<http://rdf.cdisc.org/std/sendig-3-0#Column.BW.BWDTC>
  rdf:type mms:DataElement ;
  mms:broader <http://rdf.cdisc.org/std/sdtm-1-2#Timing.--DTC> ;
  mms:context <http://rdf.cdisc.org/std/sendig-3-0#Table.BW> ;
  mms:dataElementDescription "Date/time of body weight collection in ISO 8601 format. This is the date/time of the collection of the observation. If the observation is for a period, this is the start of the period."^^xsd:string ;
  mms:dataElementLabel "Date/Time Animal Weighed"^^xsd:string ;
  mms:dataElementName "BWDTC"^^xsd:string ;
  mms:dataElementType "xsd:dateTime"^^xsd:anySimpleType ;
  mms:ordinal "19"^^xsd:positiveInteger ;
  cdiscs:controlledTermsOrFormat "ISO 8601"^^xsd:string ;
  cdiscs:dataElementCompliance <http://rdf.cdisc.org/std/sdtm-1-2#Classifier.ExpectedVariable> ;
  cdiscs:dataElementRole <http://rdf.cdisc.org/std/sdtm-1-2#Classifier.TimingVariable> ;
  cdiscs:dataElementType <http://rdf.cdisc.org/std/schema#Classifier.Character> ;
.
<http://rdf.cdisc.org/std/sendig-3-0#Column.BW.BWDY>
  rdf:type mms:DataElement ;
  mms:broader <http://rdf.cdisc.org/std/sdtm-1-2#Timing.--DY> ;
  mms:context <http://rdf.cdisc.org/std/sendig-3-0#Table.BW> ;
  mms:dataElementDescription "Study day of body weight collection, in integer days. The algorithm for calculations must be relative to the sponsor-defined RFSTDTC variable in the Demographics (DM) domain."^^xsd:string ;
  mms:dataElementLabel "Study Day Animal Weighed"^^xsd:string ;
  mms:dataElementName "BWDY"^^xsd:string ;
  mms:dataElementType "xsd:integer"^^xsd:anySimpleType ;
  mms:ordinal "20"^^xsd:positiveInteger ;
  cdiscs:dataElementCompliance <http://rdf.cdisc.org/std/sdtm-1-2#Classifier.PermissibleVariable> ;
  cdiscs:dataElementRole <http://rdf.cdisc.org/std/sdtm-1-2#Classifier.TimingVariable> ;
  cdiscs:dataElementType <http://rdf.cdisc.org/std/schema#Classifier.Numeric> ;
.
<http://rdf.cdisc.org/std/sendig-3-0#Column.BW.BWEXCLFL>
  rdf:type mms:DataElement ;
  mms:broader <http://rdf.cdisc.org/std/sdtm-1-2#DE.Finding.--EXCLFL> ;
  mms:context <http://rdf.cdisc.org/std/sendig-3-0#Table.BW> ;
  mms:dataElementDescription "Y if the result should be excluded from all calculations, otherwise null."^^xsd:string ;
  mms:dataElementLabel "Exclusion Flag"^^xsd:string ;
  mms:dataElementName "BWEXCLFL"^^xsd:string ;
  mms:dataElementType "xsd:string"^^xsd:anySimpleType ;
  mms:dataElementValueDomain sendct:C66742 ;
  mms:ordinal "16"^^xsd:positiveInteger ;
  cdiscs:controlledTermsOrFormat "(NY)"^^xsd:string ;
  cdiscs:dataElementCompliance <http://rdf.cdisc.org/std/sdtm-1-2#Classifier.PermissibleVariable> ;
  cdiscs:dataElementRole <http://rdf.cdisc.org/std/sdtm-1-2#Classifier.RecordQualifier> ;
  cdiscs:dataElementType <http://rdf.cdisc.org/std/schema#Classifier.Character> ;
.
<http://rdf.cdisc.org/std/sendig-3-0#Column.BW.BWFAST>
  rdf:type mms:DataElement ;
  mms:broader <http://rdf.cdisc.org/std/sdtm-1-2#DE.Finding.--FAST> ;
  mms:context <http://rdf.cdisc.org/std/sendig-3-0#Table.BW> ;
  mms:dataElementDescription "Indicator used to identify fasting status. May be left null if not relevant."^^xsd:string ;
  mms:dataElementLabel "Fasting Status"^^xsd:string ;
  mms:dataElementName "BWFAST"^^xsd:string ;
  mms:dataElementType "xsd:string"^^xsd:anySimpleType ;
  mms:dataElementValueDomain sendct:C66742 ;
  mms:ordinal "15"^^xsd:positiveInteger ;
  cdiscs:controlledTermsOrFormat "(NY)"^^xsd:string ;
  cdiscs:dataElementCompliance <http://rdf.cdisc.org/std/sdtm-1-2#Classifier.PermissibleVariable> ;
  cdiscs:dataElementRole <http://rdf.cdisc.org/std/sdtm-1-2#Classifier.RecordQualifier> ;
  cdiscs:dataElementType <http://rdf.cdisc.org/std/schema#Classifier.Character> ;
.
<http://rdf.cdisc.org/std/sendig-3-0#Column.BW.BWORRES>
  rdf:type mms:DataElement ;
  mms:broader <http://rdf.cdisc.org/std/sdtm-1-2#DE.Finding.--ORRES> ;
  mms:context <http://rdf.cdisc.org/std/sendig-3-0#Table.BW> ;
  mms:dataElementDescription "Result of the measurement or finding as originally received or collected."^^xsd:string ;
  mms:dataElementLabel "Result or Findings as Collected"^^xsd:string ;
  mms:dataElementName "BWORRES"^^xsd:string ;
  mms:dataElementType "xsd:string"^^xsd:anySimpleType ;
  mms:ordinal "7"^^xsd:positiveInteger ;
  cdiscs:dataElementCompliance <http://rdf.cdisc.org/std/sdtm-1-2#Classifier.ExpectedVariable> ;
  cdiscs:dataElementRole <http://rdf.cdisc.org/std/sdtm-1-2#Classifier.ResultQualifier> ;
  cdiscs:dataElementType <http://rdf.cdisc.org/std/schema#Classifier.Character> ;
.
<http://rdf.cdisc.org/std/sendig-3-0#Column.BW.BWORRESU>
  rdf:type mms:DataElement ;
  mms:broader <http://rdf.cdisc.org/std/sdtm-1-2#DE.Finding.--ORRESU> ;
  mms:context <http://rdf.cdisc.org/std/sendig-3-0#Table.BW> ;
  mms:dataElementDescription "The unit for the original result. The unit of the original result should be mapped to a synonymous unit on the Controlled Terminology list."^^xsd:string ;
  mms:dataElementLabel "Unit of the Original Result"^^xsd:string ;
  mms:dataElementName "BWORRESU"^^xsd:string ;
  mms:dataElementType "xsd:string"^^xsd:anySimpleType ;
  mms:dataElementValueDomain sendct:C71620 ;
  mms:ordinal "8"^^xsd:positiveInteger ;
  cdiscs:controlledTermsOrFormat "(UNIT)"^^xsd:string ;
  cdiscs:dataElementCompliance <http://rdf.cdisc.org/std/sdtm-1-2#Classifier.ExpectedVariable> ;
  cdiscs:dataElementRole <http://rdf.cdisc.org/std/sdtm-1-2#Classifier.VariableQualifier> ;
  cdiscs:dataElementType <http://rdf.cdisc.org/std/schema#Classifier.Character> ;
.
<http://rdf.cdisc.org/std/sendig-3-0#Column.BW.BWREASEX>
  rdf:type mms:DataElement ;
  mms:broader <http://rdf.cdisc.org/std/sdtm-1-2#DE.Finding.--REASEX> ;
  mms:context <http://rdf.cdisc.org/std/sendig-3-0#Table.BW> ;
  mms:dataElementDescription "The reason the result should be excluded from all calculations. Used only when BWEXCLFL is Y."^^xsd:string ;
  mms:dataElementLabel "Reason for Exclusion"^^xsd:string ;
  mms:dataElementName "BWREASEX"^^xsd:string ;
  mms:dataElementType "xsd:string"^^xsd:anySimpleType ;
  mms:ordinal "17"^^xsd:positiveInteger ;
  cdiscs:dataElementCompliance <http://rdf.cdisc.org/std/sdtm-1-2#Classifier.PermissibleVariable> ;
  cdiscs:dataElementRole <http://rdf.cdisc.org/std/sdtm-1-2#Classifier.RecordQualifier> ;
  cdiscs:dataElementType <http://rdf.cdisc.org/std/schema#Classifier.Character> ;
.
<http://rdf.cdisc.org/std/sendig-3-0#Column.BW.BWREASND>
  rdf:type mms:DataElement ;
  mms:broader <http://rdf.cdisc.org/std/sdtm-1-2#DE.Finding.--REASND> ;
  mms:context <http://rdf.cdisc.org/std/sendig-3-0#Table.BW> ;
  mms:dataElementDescription "Describes why BWSTAT is NOT DONE, such as BROKEN EQUIPMENT or TECHNICIAN OVERSIGHT."^^xsd:string ;
  mms:dataElementLabel "Reason Not Done"^^xsd:string ;
  mms:dataElementName "BWREASND"^^xsd:string ;
  mms:dataElementType "xsd:string"^^xsd:anySimpleType ;
  mms:ordinal "13"^^xsd:positiveInteger ;
  cdiscs:dataElementCompliance <http://rdf.cdisc.org/std/sdtm-1-2#Classifier.PermissibleVariable> ;
  cdiscs:dataElementRole <http://rdf.cdisc.org/std/sdtm-1-2#Classifier.RecordQualifier> ;
  cdiscs:dataElementType <http://rdf.cdisc.org/std/schema#Classifier.Character> ;
.
<http://rdf.cdisc.org/std/sendig-3-0#Column.BW.BWSEQ>
  rdf:type mms:DataElement ;
  mms:broader <http://rdf.cdisc.org/std/sdtm-1-2#DE.Identifier.--SEQ> ;
  mms:context <http://rdf.cdisc.org/std/sendig-3-0#Table.BW> ;
  mms:dataElementDescription "Sequence number given to ensure uniqueness of subject records within a domain. May be any valid number."^^xsd:string ;
  mms:dataElementLabel "Sequence Number"^^xsd:string ;
  mms:dataElementName "BWSEQ"^^xsd:string ;
  mms:dataElementType "xsd:decimal"^^xsd:anySimpleType ;
  mms:ordinal "4"^^xsd:positiveInteger ;
  cdiscs:dataElementCompliance <http://rdf.cdisc.org/std/sdtm-1-2#Classifier.RequiredVariable> ;
  cdiscs:dataElementRole <http://rdf.cdisc.org/std/sdtm-1-2#Classifier.IdentifierVariable> ;
  cdiscs:dataElementType <http://rdf.cdisc.org/std/schema#Classifier.Numeric> ;
.
<http://rdf.cdisc.org/std/sendig-3-0#Column.BW.BWSTAT>
  rdf:type mms:DataElement ;
  mms:broader <http://rdf.cdisc.org/std/sdtm-1-2#DE.Finding.--STAT> ;
  mms:context <http://rdf.cdisc.org/std/sendig-3-0#Table.BW> ;
  mms:dataElementDescription "Used to indicate when a test is not done or result is missing. Should be null if a result exists in BWORRES."^^xsd:string ;
  mms:dataElementLabel "Examination Status"^^xsd:string ;
  mms:dataElementName "BWSTAT"^^xsd:string ;
  mms:dataElementType "xsd:string"^^xsd:anySimpleType ;
  mms:dataElementValueDomain sendct:C66789 ;
  mms:ordinal "12"^^xsd:positiveInteger ;
  cdiscs:controlledTermsOrFormat "(ND)"^^xsd:string ;
  cdiscs:dataElementCompliance <http://rdf.cdisc.org/std/sdtm-1-2#Classifier.PermissibleVariable> ;
  cdiscs:dataElementRole <http://rdf.cdisc.org/std/sdtm-1-2#Classifier.RecordQualifier> ;
  cdiscs:dataElementType <http://rdf.cdisc.org/std/schema#Classifier.Character> ;
.
<http://rdf.cdisc.org/std/sendig-3-0#Column.BW.BWSTRESC>
  rdf:type mms:DataElement ;
  mms:broader <http://rdf.cdisc.org/std/sdtm-1-2#DE.Finding.--STRESC> ;
  mms:context <http://rdf.cdisc.org/std/sendig-3-0#Table.BW> ;
  mms:dataElementDescription "Contains the result value for all findings or derived from BWORRES in a standard format or standard units. BWSTRESC should store all results or findings in character format; if results are numeric, they should also be stored in numeric format in BWSTRESN."^^xsd:string ;
  mms:dataElementLabel "Standardized Result in Character Format"^^xsd:string ;
  mms:dataElementName "BWSTRESC"^^xsd:string ;
  mms:dataElementType "xsd:string"^^xsd:anySimpleType ;
  mms:ordinal "9"^^xsd:positiveInteger ;
  cdiscs:dataElementCompliance <http://rdf.cdisc.org/std/sdtm-1-2#Classifier.ExpectedVariable> ;
  cdiscs:dataElementRole <http://rdf.cdisc.org/std/sdtm-1-2#Classifier.ResultQualifier> ;
  cdiscs:dataElementType <http://rdf.cdisc.org/std/schema#Classifier.Character> ;
.
<http://rdf.cdisc.org/std/sendig-3-0#Column.BW.BWSTRESN>
  rdf:type mms:DataElement ;
  mms:broader <http://rdf.cdisc.org/std/sdtm-1-2#DE.Finding.--STRESN> ;
  mms:context <http://rdf.cdisc.org/std/sendig-3-0#Table.BW> ;
  mms:dataElementDescription "Used for results or findings in standard format; contains the numeric format of BWSTRESC. BWSTRESN should store all numeric test results or findings."^^xsd:string ;
  mms:dataElementLabel "Standardized Result in Numeric Format"^^xsd:string ;
  mms:dataElementName "BWSTRESN"^^xsd:string ;
  mms:dataElementType "xsd:decimal"^^xsd:anySimpleType ;
  mms:ordinal "10"^^xsd:positiveInteger ;
  cdiscs:dataElementCompliance <http://rdf.cdisc.org/std/sdtm-1-2#Classifier.ExpectedVariable> ;
  cdiscs:dataElementRole <http://rdf.cdisc.org/std/sdtm-1-2#Classifier.ResultQualifier> ;
  cdiscs:dataElementType <http://rdf.cdisc.org/std/schema#Classifier.Numeric> ;
.
<http://rdf.cdisc.org/std/sendig-3-0#Column.BW.BWSTRESU>
  rdf:type mms:DataElement ;
  mms:broader <http://rdf.cdisc.org/std/sdtm-1-2#DE.Finding.--STRESU> ;
  mms:context <http://rdf.cdisc.org/std/sendig-3-0#Table.BW> ;
  mms:dataElementDescription "Standardized unit used for BWSTRESC and BWSTRESN."^^xsd:string ;
  mms:dataElementLabel "Unit of the Standardized Result"^^xsd:string ;
  mms:dataElementName "BWSTRESU"^^xsd:string ;
  mms:dataElementType "xsd:string"^^xsd:anySimpleType ;
  mms:dataElementValueDomain sendct:C71620 ;
  mms:ordinal "11"^^xsd:positiveInteger ;
  cdiscs:controlledTermsOrFormat "(UNIT)"^^xsd:string ;
  cdiscs:dataElementCompliance <http://rdf.cdisc.org/std/sdtm-1-2#Classifier.ExpectedVariable> ;
  cdiscs:dataElementRole <http://rdf.cdisc.org/std/sdtm-1-2#Classifier.VariableQualifier> ;
  cdiscs:dataElementType <http://rdf.cdisc.org/std/schema#Classifier.Character> ;
.
<http://rdf.cdisc.org/std/sendig-3-0#Column.BW.BWTEST>
  rdf:type mms:DataElement ;
  mms:broader <http://rdf.cdisc.org/std/sdtm-1-2#DE.Finding.--TEST> ;
  mms:context <http://rdf.cdisc.org/std/sendig-3-0#Table.BW> ;
  mms:dataElementDescription "Long name for BWTESTCD. The value in BWTEST cannot be longer than 40 characters."^^xsd:string ;
  mms:dataElementLabel "Test Name"^^xsd:string ;
  mms:dataElementName "BWTEST"^^xsd:string ;
  mms:dataElementType "xsd:string"^^xsd:anySimpleType ;
  mms:dataElementValueDomain sendct:C89961 ;
  mms:ordinal "6"^^xsd:positiveInteger ;
  cdiscs:controlledTermsOrFormat "(BWTEST)"^^xsd:string ;
  cdiscs:dataElementCompliance <http://rdf.cdisc.org/std/sdtm-1-2#Classifier.RequiredVariable> ;
  cdiscs:dataElementRole <http://rdf.cdisc.org/std/sdtm-1-2#Classifier.SynonymQualifier> ;
  cdiscs:dataElementType <http://rdf.cdisc.org/std/schema#Classifier.Character> ;
.
<http://rdf.cdisc.org/std/sendig-3-0#Column.BW.BWTESTCD>
  rdf:type mms:DataElement ;
  mms:broader <http://rdf.cdisc.org/std/sdtm-1-2#DE.Finding.--TESTCD> ;
  mms:context <http://rdf.cdisc.org/std/sendig-3-0#Table.BW> ;
  mms:dataElementDescription "Short name of the measurement, test, or examination described in BWTEST. It can be used as a column name when converting a dataset from a vertical to a horizontal format. The value in BWTESTCD cannot be longer than 8 characters, nor can it start with a number (e.g., \"1TEST\" is not valid). BWTESTCD cannot contain characters other than letters, numbers, or underscores."^^xsd:string ;
  mms:dataElementLabel "Test Short Name"^^xsd:string ;
  mms:dataElementName "BWTESTCD"^^xsd:string ;
  mms:dataElementType "xsd:string"^^xsd:anySimpleType ;
  mms:dataElementValueDomain sendct:C89962 ;
  mms:ordinal "5"^^xsd:positiveInteger ;
  cdiscs:controlledTermsOrFormat "(BWTESTCD)"^^xsd:string ;
  cdiscs:dataElementCompliance <http://rdf.cdisc.org/std/sdtm-1-2#Classifier.RequiredVariable> ;
  cdiscs:dataElementRole <http://rdf.cdisc.org/std/sdtm-1-2#Classifier.TopicVariable> ;
  cdiscs:dataElementType <http://rdf.cdisc.org/std/schema#Classifier.Character> ;
.
<http://rdf.cdisc.org/std/sendig-3-0#Column.BW.DOMAIN>
  rdf:type mms:DataElement ;
  mms:broader <http://rdf.cdisc.org/std/sdtm-1-2#DE.Identifier.DOMAIN> ;
  mms:context <http://rdf.cdisc.org/std/sendig-3-0#Table.BW> ;
  mms:dataElementDescription "Two-character abbreviation for the domain."^^xsd:string ;
  mms:dataElementLabel "Domain Abbreviation"^^xsd:string ;
  mms:dataElementName "DOMAIN"^^xsd:string ;
  mms:dataElementType "xsd:string"^^xsd:anySimpleType ;
  mms:ordinal "2"^^xsd:positiveInteger ;
  cdiscs:controlledTermsOrFormat "BW"^^xsd:string ;
  cdiscs:dataElementCompliance <http://rdf.cdisc.org/std/sdtm-1-2#Classifier.RequiredVariable> ;
  cdiscs:dataElementRole <http://rdf.cdisc.org/std/sdtm-1-2#Classifier.IdentifierVariable> ;
  cdiscs:dataElementType <http://rdf.cdisc.org/std/schema#Classifier.Character> ;
.
<http://rdf.cdisc.org/std/sendig-3-0#Column.BW.STUDYID>
  rdf:type mms:DataElement ;
  mms:broader <http://rdf.cdisc.org/std/sdtm-1-2#DE.Identifier.STUDYID> ;
  mms:context <http://rdf.cdisc.org/std/sendig-3-0#Table.BW> ;
  mms:dataElementDescription "Unique identifier for a study."^^xsd:string ;
  mms:dataElementLabel "Study Identifier"^^xsd:string ;
  mms:dataElementName "STUDYID"^^xsd:string ;
  mms:dataElementType "xsd:string"^^xsd:anySimpleType ;
  mms:ordinal "1"^^xsd:positiveInteger ;
  cdiscs:dataElementCompliance <http://rdf.cdisc.org/std/sdtm-1-2#Classifier.RequiredVariable> ;
  cdiscs:dataElementRole <http://rdf.cdisc.org/std/sdtm-1-2#Classifier.IdentifierVariable> ;
  cdiscs:dataElementType <http://rdf.cdisc.org/std/schema#Classifier.Character> ;
.
<http://rdf.cdisc.org/std/sendig-3-0#Column.BW.USUBJID>
  rdf:type mms:DataElement ;
  mms:broader <http://rdf.cdisc.org/std/sdtm-1-2#DE.Identifier.USUBJID> ;
  mms:context <http://rdf.cdisc.org/std/sendig-3-0#Table.BW> ;
  mms:dataElementDescription "Identifier used to uniquely identify a subject across all studies for all applications or submissions involving the product."^^xsd:string ;
  mms:dataElementLabel "Unique Subject Identifier"^^xsd:string ;
  mms:dataElementName "USUBJID"^^xsd:string ;
  mms:dataElementType "xsd:string"^^xsd:anySimpleType ;
  mms:ordinal "3"^^xsd:positiveInteger ;
  cdiscs:dataElementCompliance <http://rdf.cdisc.org/std/sdtm-1-2#Classifier.RequiredVariable> ;
  cdiscs:dataElementRole <http://rdf.cdisc.org/std/sdtm-1-2#Classifier.IdentifierVariable> ;
  cdiscs:dataElementType <http://rdf.cdisc.org/std/schema#Classifier.Character> ;
.
<http://rdf.cdisc.org/std/sendig-3-0#Column.BW.VISITDY>
  rdf:type mms:DataElement ;
  mms:broader <http://rdf.cdisc.org/std/sdtm-1-2#Timing.VISITDY> ;
  mms:context <http://rdf.cdisc.org/std/sendig-3-0#Table.BW> ;
  mms:dataElementDescription "This is the planned study day of collection."^^xsd:string ;
  mms:dataElementLabel "Planned Study Day of Collection"^^xsd:string ;
  mms:dataElementName "VISITDY"^^xsd:string ;
  mms:dataElementType "xsd:integer"^^xsd:anySimpleType ;
  mms:ordinal "18"^^xsd:positiveInteger ;
  cdiscs:dataElementCompliance <http://rdf.cdisc.org/std/sdtm-1-2#Classifier.ExpectedVariable> ;
  cdiscs:dataElementRole <http://rdf.cdisc.org/std/sdtm-1-2#Classifier.TimingVariable> ;
  cdiscs:dataElementType <http://rdf.cdisc.org/std/schema#Classifier.Numeric> ;
.
<http://rdf.cdisc.org/std/sendig-3-0#Column.CL.CLBODSYS>
  rdf:type mms:DataElement ;
  mms:broader <http://rdf.cdisc.org/std/sdtm-1-2#DE.Finding.--BODSYS> ;
  mms:context <http://rdf.cdisc.org/std/sendig-3-0#Table.CL> ;
  mms:dataElementDescription "Body system or organ class associated with the measurement performed."^^xsd:string ;
  mms:dataElementLabel "Body System or Organ Class"^^xsd:string ;
  mms:dataElementName "CLBODSYS"^^xsd:string ;
  mms:dataElementType "xsd:string"^^xsd:anySimpleType ;
  mms:dataElementValueDomain sendct:C88026 ;
  mms:ordinal "12"^^xsd:positiveInteger ;
  cdiscs:controlledTermsOrFormat "(BODSYS)"^^xsd:string ;
  cdiscs:dataElementCompliance <http://rdf.cdisc.org/std/sdtm-1-2#Classifier.PermissibleVariable> ;
  cdiscs:dataElementRole <http://rdf.cdisc.org/std/sdtm-1-2#Classifier.RecordQualifier> ;
  cdiscs:dataElementType <http://rdf.cdisc.org/std/schema#Classifier.Character> ;
.
<http://rdf.cdisc.org/std/sendig-3-0#Column.CL.CLCAT>
  rdf:type mms:DataElement ;
  mms:broader <http://rdf.cdisc.org/std/sdtm-1-2#DE.Finding.--CAT> ;
  mms:context <http://rdf.cdisc.org/std/sendig-3-0#Table.CL> ;
  mms:dataElementDescription "Used to define a category of the clinical observation."^^xsd:string ;
  mms:dataElementLabel "Category for Clinical Observations"^^xsd:string ;
  mms:dataElementName "CLCAT"^^xsd:string ;
  mms:dataElementType "xsd:string"^^xsd:anySimpleType ;
  mms:dataElementValueDomain sendct:C89963 ;
  mms:ordinal "10"^^xsd:positiveInteger ;
  cdiscs:controlledTermsOrFormat "(CLCAT)"^^xsd:string ;
  cdiscs:dataElementCompliance <http://rdf.cdisc.org/std/sdtm-1-2#Classifier.RequiredVariable> ;
  cdiscs:dataElementRole <http://rdf.cdisc.org/std/sdtm-1-2#Classifier.GroupingQualifier> ;
  cdiscs:dataElementType <http://rdf.cdisc.org/std/schema#Classifier.Character> ;
.
<http://rdf.cdisc.org/std/sendig-3-0#Column.CL.CLDTC>
  rdf:type mms:DataElement ;
  mms:broader <http://rdf.cdisc.org/std/sdtm-1-2#Timing.--DTC> ;
  mms:context <http://rdf.cdisc.org/std/sendig-3-0#Table.CL> ;
  mms:dataElementDescription "Date/time of the clinical observation in ISO 8601 format."^^xsd:string ;
  mms:dataElementLabel "Start Date/Time of Observation"^^xsd:string ;
  mms:dataElementName "CLDTC"^^xsd:string ;
  mms:dataElementType "xsd:dateTime"^^xsd:anySimpleType ;
  mms:ordinal "24"^^xsd:positiveInteger ;
  cdiscs:controlledTermsOrFormat "ISO 8601"^^xsd:string ;
  cdiscs:dataElementCompliance <http://rdf.cdisc.org/std/sdtm-1-2#Classifier.ExpectedVariable> ;
  cdiscs:dataElementRole <http://rdf.cdisc.org/std/sdtm-1-2#Classifier.TimingVariable> ;
  cdiscs:dataElementType <http://rdf.cdisc.org/std/schema#Classifier.Character> ;
.
<http://rdf.cdisc.org/std/sendig-3-0#Column.CL.CLDY>
  rdf:type mms:DataElement ;
  mms:broader <http://rdf.cdisc.org/std/sdtm-1-2#Timing.--DY> ;
  mms:context <http://rdf.cdisc.org/std/sendig-3-0#Table.CL> ;
  mms:dataElementDescription "Study day of the clinical observation, in integer days.  The algorithm for calculations must be relative to the sponsor-defined RFSTDTC variable in the Demographics (DM) domain."^^xsd:string ;
  mms:dataElementLabel "Study Day of Observation"^^xsd:string ;
  mms:dataElementName "CLDY"^^xsd:string ;
  mms:dataElementType "xsd:integer"^^xsd:anySimpleType ;
  mms:ordinal "25"^^xsd:positiveInteger ;
  cdiscs:dataElementCompliance <http://rdf.cdisc.org/std/sdtm-1-2#Classifier.PermissibleVariable> ;
  cdiscs:dataElementRole <http://rdf.cdisc.org/std/sdtm-1-2#Classifier.TimingVariable> ;
  cdiscs:dataElementType <http://rdf.cdisc.org/std/schema#Classifier.Numeric> ;
.
<http://rdf.cdisc.org/std/sendig-3-0#Column.CL.CLELTM>
  rdf:type mms:DataElement ;
  mms:broader <http://rdf.cdisc.org/std/sdtm-1-2#DE.Finding.--ELTM> ;
  mms:context <http://rdf.cdisc.org/std/sendig-3-0#Table.CL> ;
  mms:dataElementDescription "Planned Elapsed time in ISO 8601 format relative to a planned reference (CLTPTREF). This variable is useful where there are repetitive measures. Not a clock time or a date/time variable, but an interval, represented as an ISO 8601 duration."^^xsd:string ;
  mms:dataElementLabel "Planned Elapsed Time from Time Point Ref"^^xsd:string ;
  mms:dataElementName "CLELTM"^^xsd:string ;
  mms:dataElementType "xsd:duration"^^xsd:anySimpleType ;
  mms:ordinal "28"^^xsd:positiveInteger ;
  cdiscs:controlledTermsOrFormat "ISO 8601"^^xsd:string ;
  cdiscs:dataElementCompliance <http://rdf.cdisc.org/std/sdtm-1-2#Classifier.PermissibleVariable> ;
  cdiscs:dataElementRole <http://rdf.cdisc.org/std/sdtm-1-2#Classifier.TimingVariable> ;
  cdiscs:dataElementType <http://rdf.cdisc.org/std/schema#Classifier.Character> ;
.
<http://rdf.cdisc.org/std/sendig-3-0#Column.CL.CLEVAL>
  rdf:type mms:DataElement ;
  mms:broader <http://rdf.cdisc.org/std/sdtm-1-2#DE.Finding.--EVAL> ;
  mms:context <http://rdf.cdisc.org/std/sendig-3-0#Table.CL> ;
  mms:dataElementDescription "Role of the person who provided the evaluation. Example: TOX TECHNICIAN, OPHTHALMOLOGIST, VETERINARIAN."^^xsd:string ;
  mms:dataElementLabel "Evaluator"^^xsd:string ;
  mms:dataElementName "CLEVAL"^^xsd:string ;
  mms:dataElementType "xsd:string"^^xsd:anySimpleType ;
  mms:ordinal "19"^^xsd:positiveInteger ;
  cdiscs:dataElementCompliance <http://rdf.cdisc.org/std/sdtm-1-2#Classifier.PermissibleVariable> ;
  cdiscs:dataElementRole <http://rdf.cdisc.org/std/sdtm-1-2#Classifier.RecordQualifier> ;
  cdiscs:dataElementType <http://rdf.cdisc.org/std/schema#Classifier.Character> ;
.
<http://rdf.cdisc.org/std/sendig-3-0#Column.CL.CLEXCLFL>
  rdf:type mms:DataElement ;
  mms:broader <http://rdf.cdisc.org/std/sdtm-1-2#DE.Finding.--EXCLFL> ;
  mms:context <http://rdf.cdisc.org/std/sendig-3-0#Table.CL> ;
  mms:dataElementDescription "Y if the result should be excluded from all calculations, otherwise null."^^xsd:string ;
  mms:dataElementLabel "Exclusion Flag"^^xsd:string ;
  mms:dataElementName "CLEXCLFL"^^xsd:string ;
  mms:dataElementType "xsd:string"^^xsd:anySimpleType ;
  mms:dataElementValueDomain sendct:C66742 ;
  mms:ordinal "21"^^xsd:positiveInteger ;
  cdiscs:controlledTermsOrFormat "(NY)"^^xsd:string ;
  cdiscs:dataElementCompliance <http://rdf.cdisc.org/std/sdtm-1-2#Classifier.PermissibleVariable> ;
  cdiscs:dataElementRole <http://rdf.cdisc.org/std/sdtm-1-2#Classifier.RecordQualifier> ;
  cdiscs:dataElementType <http://rdf.cdisc.org/std/schema#Classifier.Character> ;
.
<http://rdf.cdisc.org/std/sendig-3-0#Column.CL.CLGRPID>
  rdf:type mms:DataElement ;
  mms:broader <http://rdf.cdisc.org/std/sdtm-1-2#DE.Identifier.--GRPID> ;
  mms:context <http://rdf.cdisc.org/std/sendig-3-0#Table.CL> ;
  mms:dataElementDescription "Used to tie together a block of related records in a single domain for a subject. This is not the treatment group number."^^xsd:string ;
  mms:dataElementLabel "Group Identifier"^^xsd:string ;
  mms:dataElementName "CLGRPID"^^xsd:string ;
  mms:dataElementType "xsd:string"^^xsd:anySimpleType ;
  mms:ordinal "6"^^xsd:positiveInteger ;
  cdiscs:dataElementCompliance <http://rdf.cdisc.org/std/sdtm-1-2#Classifier.PermissibleVariable> ;
  cdiscs:dataElementRole <http://rdf.cdisc.org/std/sdtm-1-2#Classifier.IdentifierVariable> ;
  cdiscs:dataElementType <http://rdf.cdisc.org/std/schema#Classifier.Character> ;
.
<http://rdf.cdisc.org/std/sendig-3-0#Column.CL.CLLOC>
  rdf:type mms:DataElement ;
  mms:broader <http://rdf.cdisc.org/std/sdtm-1-2#DE.Finding.--LOC> ;
  mms:context <http://rdf.cdisc.org/std/sendig-3-0#Table.CL> ;
  mms:dataElementDescription "Can be used to specify where a clinical sign occurred. Example: LEFT EAR for skin rash."^^xsd:string ;
  mms:dataElementLabel "Location of a Finding"^^xsd:string ;
  mms:dataElementName "CLLOC"^^xsd:string ;
  mms:dataElementType "xsd:string"^^xsd:anySimpleType ;
  mms:ordinal "18"^^xsd:positiveInteger ;
  cdiscs:dataElementCompliance <http://rdf.cdisc.org/std/sdtm-1-2#Classifier.ExpectedVariable> ;
  cdiscs:dataElementRole <http://rdf.cdisc.org/std/sdtm-1-2#Classifier.RecordQualifier> ;
  cdiscs:dataElementType <http://rdf.cdisc.org/std/schema#Classifier.Character> ;
.
<http://rdf.cdisc.org/std/sendig-3-0#Column.CL.CLORRES>
  rdf:type mms:DataElement ;
  mms:broader <http://rdf.cdisc.org/std/sdtm-1-2#DE.Finding.--ORRES> ;
  mms:context <http://rdf.cdisc.org/std/sendig-3-0#Table.CL> ;
  mms:dataElementDescription "Text description of the finding as originally received or collected. If the examination was not performed on a particular body system, or at the subject level, then the value should be null, and NOT DONE should appear in CLSTAT."^^xsd:string ;
  mms:dataElementLabel "Result or Findings as Collected"^^xsd:string ;
  mms:dataElementName "CLORRES"^^xsd:string ;
  mms:dataElementType "xsd:string"^^xsd:anySimpleType ;
  mms:ordinal "13"^^xsd:positiveInteger ;
  cdiscs:dataElementCompliance <http://rdf.cdisc.org/std/sdtm-1-2#Classifier.ExpectedVariable> ;
  cdiscs:dataElementRole <http://rdf.cdisc.org/std/sdtm-1-2#Classifier.ResultQualifier> ;
  cdiscs:dataElementType <http://rdf.cdisc.org/std/schema#Classifier.Character> ;
.
<http://rdf.cdisc.org/std/sendig-3-0#Column.CL.CLREASEX>
  rdf:type mms:DataElement ;
  mms:broader <http://rdf.cdisc.org/std/sdtm-1-2#DE.Finding.--REASEX> ;
  mms:context <http://rdf.cdisc.org/std/sendig-3-0#Table.CL> ;
  mms:dataElementDescription "The reason the result should be excluded from all calculations. Used only when CLEXCLFL is Y."^^xsd:string ;
  mms:dataElementLabel "Reason for Exclusion"^^xsd:string ;
  mms:dataElementName "CLREASEX"^^xsd:string ;
  mms:dataElementType "xsd:string"^^xsd:anySimpleType ;
  mms:ordinal "22"^^xsd:positiveInteger ;
  cdiscs:dataElementCompliance <http://rdf.cdisc.org/std/sdtm-1-2#Classifier.PermissibleVariable> ;
  cdiscs:dataElementRole <http://rdf.cdisc.org/std/sdtm-1-2#Classifier.RecordQualifier> ;
  cdiscs:dataElementType <http://rdf.cdisc.org/std/schema#Classifier.Character> ;
.
<http://rdf.cdisc.org/std/sendig-3-0#Column.CL.CLREASND>
  rdf:type mms:DataElement ;
  mms:broader <http://rdf.cdisc.org/std/sdtm-1-2#DE.Finding.--REASND> ;
  mms:context <http://rdf.cdisc.org/std/sendig-3-0#Table.CL> ;
  mms:dataElementDescription "Describes why CLSTAT is NOT DONE, such as ANIMAL MORIBUND."^^xsd:string ;
  mms:dataElementLabel "Reason Not Done"^^xsd:string ;
  mms:dataElementName "CLREASND"^^xsd:string ;
  mms:dataElementType "xsd:string"^^xsd:anySimpleType ;
  mms:ordinal "17"^^xsd:positiveInteger ;
  cdiscs:dataElementCompliance <http://rdf.cdisc.org/std/sdtm-1-2#Classifier.PermissibleVariable> ;
  cdiscs:dataElementRole <http://rdf.cdisc.org/std/sdtm-1-2#Classifier.RecordQualifier> ;
  cdiscs:dataElementType <http://rdf.cdisc.org/std/schema#Classifier.Character> ;
.
<http://rdf.cdisc.org/std/sendig-3-0#Column.CL.CLRESCAT>
  rdf:type mms:DataElement ;
  mms:broader <http://rdf.cdisc.org/std/sdtm-1-2#DE.Finding.--RESCAT> ;
  mms:context <http://rdf.cdisc.org/std/sendig-3-0#Table.CL> ;
  mms:dataElementDescription "Used to categorize the result of a finding post collection. Examples:  Color or Facial."^^xsd:string ;
  mms:dataElementLabel "Result Category"^^xsd:string ;
  mms:dataElementName "CLRESCAT"^^xsd:string ;
  mms:dataElementType "xsd:string"^^xsd:anySimpleType ;
  mms:ordinal "15"^^xsd:positiveInteger ;
  cdiscs:dataElementCompliance <http://rdf.cdisc.org/std/sdtm-1-2#Classifier.PermissibleVariable> ;
  cdiscs:dataElementRole <http://rdf.cdisc.org/std/sdtm-1-2#Classifier.VariableQualifier> ;
  cdiscs:dataElementType <http://rdf.cdisc.org/std/schema#Classifier.Character> ;
.
<http://rdf.cdisc.org/std/sendig-3-0#Column.CL.CLRFTDTC>
  rdf:type mms:DataElement ;
  mms:broader <http://rdf.cdisc.org/std/sdtm-1-2#DE.Finding.--RFTDTC> ;
  mms:context <http://rdf.cdisc.org/std/sendig-3-0#Table.CL> ;
  mms:dataElementDescription "Date/time for a fixed reference time point defined by --TPTREF in ISO 8601 format."^^xsd:string ;
  mms:dataElementLabel "Date/Time of Reference Time Point"^^xsd:string ;
  mms:dataElementName "CLRFTDTC"^^xsd:string ;
  mms:dataElementType "xsd:dateTime"^^xsd:anySimpleType ;
  mms:ordinal "30"^^xsd:positiveInteger ;
  cdiscs:controlledTermsOrFormat "ISO 8601"^^xsd:string ;
  cdiscs:dataElementCompliance <http://rdf.cdisc.org/std/sdtm-1-2#Classifier.PermissibleVariable> ;
  cdiscs:dataElementRole <http://rdf.cdisc.org/std/sdtm-1-2#Classifier.TimingVariable> ;
  cdiscs:dataElementType <http://rdf.cdisc.org/std/schema#Classifier.Character> ;
.
<http://rdf.cdisc.org/std/sendig-3-0#Column.CL.CLSCAT>
  rdf:type mms:DataElement ;
  mms:broader <http://rdf.cdisc.org/std/sdtm-1-2#DE.Finding.--SCAT> ;
  mms:context <http://rdf.cdisc.org/std/sendig-3-0#Table.CL> ;
  mms:dataElementDescription "Used to further categorize a group of clinical observations within a category. For example \"Whole Body Appearance\"and \"Sensory Organ Appearance\" may be subcategories within Clinical Signs."^^xsd:string ;
  mms:dataElementLabel "Subcategory for Clinical Observations"^^xsd:string ;
  mms:dataElementName "CLSCAT"^^xsd:string ;
  mms:dataElementType "xsd:string"^^xsd:anySimpleType ;
  mms:ordinal "11"^^xsd:positiveInteger ;
  cdiscs:dataElementCompliance <http://rdf.cdisc.org/std/sdtm-1-2#Classifier.PermissibleVariable> ;
  cdiscs:dataElementRole <http://rdf.cdisc.org/std/sdtm-1-2#Classifier.GroupingQualifier> ;
  cdiscs:dataElementType <http://rdf.cdisc.org/std/schema#Classifier.Character> ;
.
<http://rdf.cdisc.org/std/sendig-3-0#Column.CL.CLSEQ>
  rdf:type mms:DataElement ;
  mms:broader <http://rdf.cdisc.org/std/sdtm-1-2#DE.Identifier.--SEQ> ;
  mms:context <http://rdf.cdisc.org/std/sendig-3-0#Table.CL> ;
  mms:dataElementDescription "Sequence number given to ensure uniqueness of subject records within a domain. May be any valid number."^^xsd:string ;
  mms:dataElementLabel "Sequence Number"^^xsd:string ;
  mms:dataElementName "CLSEQ"^^xsd:string ;
  mms:dataElementType "xsd:decimal"^^xsd:anySimpleType ;
  mms:ordinal "5"^^xsd:positiveInteger ;
  cdiscs:dataElementCompliance <http://rdf.cdisc.org/std/sdtm-1-2#Classifier.RequiredVariable> ;
  cdiscs:dataElementRole <http://rdf.cdisc.org/std/sdtm-1-2#Classifier.IdentifierVariable> ;
  cdiscs:dataElementType <http://rdf.cdisc.org/std/schema#Classifier.Numeric> ;
.
<http://rdf.cdisc.org/std/sendig-3-0#Column.CL.CLSEV>
  rdf:type mms:DataElement ;
  mms:broader <http://rdf.cdisc.org/std/sdtm-1-2#DE.Finding.--SEV> ;
  mms:context <http://rdf.cdisc.org/std/sendig-3-0#Table.CL> ;
  mms:dataElementDescription "Describes the severity or intensity of a particular finding."^^xsd:string ;
  mms:dataElementLabel "Severity"^^xsd:string ;
  mms:dataElementName "CLSEV"^^xsd:string ;
  mms:dataElementType "xsd:string"^^xsd:anySimpleType ;
  mms:ordinal "20"^^xsd:positiveInteger ;
  cdiscs:dataElementCompliance <http://rdf.cdisc.org/std/sdtm-1-2#Classifier.PermissibleVariable> ;
  cdiscs:dataElementRole <http://rdf.cdisc.org/std/sdtm-1-2#Classifier.RecordQualifier> ;
  cdiscs:dataElementType <http://rdf.cdisc.org/std/schema#Classifier.Character> ;
.
<http://rdf.cdisc.org/std/sendig-3-0#Column.CL.CLSPID>
  rdf:type mms:DataElement ;
  mms:broader <http://rdf.cdisc.org/std/sdtm-1-2#DE.Identifier.--SPID> ;
  mms:context <http://rdf.cdisc.org/std/sendig-3-0#Table.CL> ;
  mms:dataElementDescription "Mass identifier such as MASS 1 or MASS A. Used when the mass was discovered during the in-life phase and assigned a mass identifier. The mass identification should be unique within the subject, regardless of mass location."^^xsd:string ;
  mms:dataElementLabel "Mass Identifier"^^xsd:string ;
  mms:dataElementName "CLSPID"^^xsd:string ;
  mms:dataElementType "xsd:string"^^xsd:anySimpleType ;
  mms:ordinal "7"^^xsd:positiveInteger ;
  cdiscs:dataElementCompliance <http://rdf.cdisc.org/std/sdtm-1-2#Classifier.PermissibleVariable> ;
  cdiscs:dataElementRole <http://rdf.cdisc.org/std/sdtm-1-2#Classifier.IdentifierVariable> ;
  cdiscs:dataElementType <http://rdf.cdisc.org/std/schema#Classifier.Character> ;
.
<http://rdf.cdisc.org/std/sendig-3-0#Column.CL.CLSTAT>
  rdf:type mms:DataElement ;
  mms:broader <http://rdf.cdisc.org/std/sdtm-1-2#DE.Finding.--STAT> ;
  mms:context <http://rdf.cdisc.org/std/sendig-3-0#Table.CL> ;
  mms:dataElementDescription "Used to indicate when a result is missing. Should be null if a result exists in CLORRES."^^xsd:string ;
  mms:dataElementLabel "Examination Status"^^xsd:string ;
  mms:dataElementName "CLSTAT"^^xsd:string ;
  mms:dataElementType "xsd:string"^^xsd:anySimpleType ;
  mms:dataElementValueDomain sendct:C66789 ;
  mms:ordinal "16"^^xsd:positiveInteger ;
  cdiscs:controlledTermsOrFormat "(ND)"^^xsd:string ;
  cdiscs:dataElementCompliance <http://rdf.cdisc.org/std/sdtm-1-2#Classifier.PermissibleVariable> ;
  cdiscs:dataElementRole <http://rdf.cdisc.org/std/sdtm-1-2#Classifier.RecordQualifier> ;
  cdiscs:dataElementType <http://rdf.cdisc.org/std/schema#Classifier.Character> ;
.
<http://rdf.cdisc.org/std/sendig-3-0#Column.CL.CLSTRESC>
  rdf:type mms:DataElement ;
  mms:broader <http://rdf.cdisc.org/std/sdtm-1-2#DE.Finding.--STRESC> ;
  mms:context <http://rdf.cdisc.org/std/sendig-3-0#Table.CL> ;
  mms:dataElementDescription "The base finding from CLORRES without modifiers. If the examination was completed and there were no abnormal findings, the value must be NORMAL."^^xsd:string ;
  mms:dataElementLabel "Standardized Result in Character Format"^^xsd:string ;
  mms:dataElementName "CLSTRESC"^^xsd:string ;
  mms:dataElementType "xsd:string"^^xsd:anySimpleType ;
  mms:ordinal "14"^^xsd:positiveInteger ;
  cdiscs:dataElementCompliance <http://rdf.cdisc.org/std/sdtm-1-2#Classifier.ExpectedVariable> ;
  cdiscs:dataElementRole <http://rdf.cdisc.org/std/sdtm-1-2#Classifier.ResultQualifier> ;
  cdiscs:dataElementType <http://rdf.cdisc.org/std/schema#Classifier.Character> ;
.
<http://rdf.cdisc.org/std/sendig-3-0#Column.CL.CLTEST>
  rdf:type mms:DataElement ;
  mms:broader <http://rdf.cdisc.org/std/sdtm-1-2#DE.Finding.--TEST> ;
  mms:context <http://rdf.cdisc.org/std/sendig-3-0#Table.CL> ;
  mms:dataElementDescription "Long name for CLTESTCD. The value in CLTEST cannot be longer than 40 characters."^^xsd:string ;
  mms:dataElementLabel "Test Name"^^xsd:string ;
  mms:dataElementName "CLTEST"^^xsd:string ;
  mms:dataElementType "xsd:string"^^xsd:anySimpleType ;
  mms:ordinal "9"^^xsd:positiveInteger ;
  cdiscs:dataElementCompliance <http://rdf.cdisc.org/std/sdtm-1-2#Classifier.RequiredVariable> ;
  cdiscs:dataElementRole <http://rdf.cdisc.org/std/sdtm-1-2#Classifier.SynonymQualifier> ;
  cdiscs:dataElementType <http://rdf.cdisc.org/std/schema#Classifier.Character> ;
.
<http://rdf.cdisc.org/std/sendig-3-0#Column.CL.CLTESTCD>
  rdf:type mms:DataElement ;
  mms:broader <http://rdf.cdisc.org/std/sdtm-1-2#DE.Finding.--TESTCD> ;
  mms:context <http://rdf.cdisc.org/std/sendig-3-0#Table.CL> ;
  mms:dataElementDescription "Short name of the measurement, test, or examination described in CLTEST. It can be used as a column name when converting a dataset from a vertical to a horizontal format. The value in CLTESTCD cannot be longer than 8 characters, nor can it start with a number (e.g., \"1TEST\" is not valid). CLTESTCD cannot contain characters other than letters, numbers, or underscores."^^xsd:string ;
  mms:dataElementLabel "Test Short Name"^^xsd:string ;
  mms:dataElementName "CLTESTCD"^^xsd:string ;
  mms:dataElementType "xsd:string"^^xsd:anySimpleType ;
  mms:ordinal "8"^^xsd:positiveInteger ;
  cdiscs:dataElementCompliance <http://rdf.cdisc.org/std/sdtm-1-2#Classifier.RequiredVariable> ;
  cdiscs:dataElementRole <http://rdf.cdisc.org/std/sdtm-1-2#Classifier.TopicVariable> ;
  cdiscs:dataElementType <http://rdf.cdisc.org/std/schema#Classifier.Character> ;
.
<http://rdf.cdisc.org/std/sendig-3-0#Column.CL.CLTPT>
  rdf:type mms:DataElement ;
  mms:broader <http://rdf.cdisc.org/std/sdtm-1-2#Timing.--TPT> ;
  mms:context <http://rdf.cdisc.org/std/sendig-3-0#Table.CL> ;
  mms:dataElementDescription "Text description of time when an observation should be taken, as defined in the protocol. This may be represented as an elapsed time relative to a fixed reference point, such as time postdose."^^xsd:string ;
  mms:dataElementLabel "Planned Time Point Name"^^xsd:string ;
  mms:dataElementName "CLTPT"^^xsd:string ;
  mms:dataElementType "xsd:string"^^xsd:anySimpleType ;
  mms:ordinal "26"^^xsd:positiveInteger ;
  cdiscs:dataElementCompliance <http://rdf.cdisc.org/std/sdtm-1-2#Classifier.PermissibleVariable> ;
  cdiscs:dataElementRole <http://rdf.cdisc.org/std/sdtm-1-2#Classifier.TimingVariable> ;
  cdiscs:dataElementType <http://rdf.cdisc.org/std/schema#Classifier.Character> ;
.
<http://rdf.cdisc.org/std/sendig-3-0#Column.CL.CLTPTNUM>
  rdf:type mms:DataElement ;
  mms:broader <http://rdf.cdisc.org/std/sdtm-1-2#Timing.--TPTNUM> ;
  mms:context <http://rdf.cdisc.org/std/sendig-3-0#Table.CL> ;
  mms:dataElementDescription "Numeric version of planned time point used in sorting."^^xsd:string ;
  mms:dataElementLabel "Planned Time Point Number"^^xsd:string ;
  mms:dataElementName "CLTPTNUM"^^xsd:string ;
  mms:dataElementType "xsd:decimal"^^xsd:anySimpleType ;
  mms:ordinal "27"^^xsd:positiveInteger ;
  cdiscs:dataElementCompliance <http://rdf.cdisc.org/std/sdtm-1-2#Classifier.PermissibleVariable> ;
  cdiscs:dataElementRole <http://rdf.cdisc.org/std/sdtm-1-2#Classifier.TimingVariable> ;
  cdiscs:dataElementType <http://rdf.cdisc.org/std/schema#Classifier.Numeric> ;
.
<http://rdf.cdisc.org/std/sendig-3-0#Column.CL.CLTPTREF>
  rdf:type mms:DataElement ;
  mms:broader <http://rdf.cdisc.org/std/sdtm-1-2#DE.Finding.--TPTREF> ;
  mms:context <http://rdf.cdisc.org/std/sendig-3-0#Table.CL> ;
  mms:dataElementDescription "Description of the fixed reference point referred to by --ELTM, --TPTNUM, and --TPT. Examples:  PREVIOUS DOSE, PREVIOUS MEAL."^^xsd:string ;
  mms:dataElementLabel "Time Point Reference"^^xsd:string ;
  mms:dataElementName "CLTPTREF"^^xsd:string ;
  mms:dataElementType "xsd:string"^^xsd:anySimpleType ;
  mms:ordinal "29"^^xsd:positiveInteger ;
  cdiscs:dataElementCompliance <http://rdf.cdisc.org/std/sdtm-1-2#Classifier.PermissibleVariable> ;
  cdiscs:dataElementRole <http://rdf.cdisc.org/std/sdtm-1-2#Classifier.TimingVariable> ;
  cdiscs:dataElementType <http://rdf.cdisc.org/std/schema#Classifier.Character> ;
.
<http://rdf.cdisc.org/std/sendig-3-0#Column.CL.DOMAIN>
  rdf:type mms:DataElement ;
  mms:broader <http://rdf.cdisc.org/std/sdtm-1-2#DE.Identifier.DOMAIN> ;
  mms:context <http://rdf.cdisc.org/std/sendig-3-0#Table.CL> ;
  mms:dataElementDescription "Two-character abbreviation for the domain."^^xsd:string ;
  mms:dataElementLabel "Domain Abbreviation"^^xsd:string ;
  mms:dataElementName "DOMAIN"^^xsd:string ;
  mms:dataElementType "xsd:string"^^xsd:anySimpleType ;
  mms:ordinal "2"^^xsd:positiveInteger ;
  cdiscs:controlledTermsOrFormat "CL"^^xsd:string ;
  cdiscs:dataElementCompliance <http://rdf.cdisc.org/std/sdtm-1-2#Classifier.RequiredVariable> ;
  cdiscs:dataElementRole <http://rdf.cdisc.org/std/sdtm-1-2#Classifier.IdentifierVariable> ;
  cdiscs:dataElementType <http://rdf.cdisc.org/std/schema#Classifier.Character> ;
.
<http://rdf.cdisc.org/std/sendig-3-0#Column.CL.POOLID>
  rdf:type mms:DataElement ;
  mms:context <http://rdf.cdisc.org/std/sendig-3-0#Table.CL> ;
  mms:dataElementDescription "Used to identify a result for pooled subjects that are not assignable to any one individual within the pool. If POOLID is entered, POOLDEF records must exist for each subject and the USUBJID must be null. An example for CL may be Cage identifier, where the animals in this dataset are housed together and a sign is applicable for all animals (e.g., Liquid Feces). Either USUBJID or POOLID must be populated."^^xsd:string ;
  mms:dataElementLabel "Pool Identifier"^^xsd:string ;
  mms:dataElementName "POOLID"^^xsd:string ;
  mms:dataElementType "xsd:string"^^xsd:anySimpleType ;
  mms:ordinal "4"^^xsd:positiveInteger ;
  cdiscs:dataElementCompliance <http://rdf.cdisc.org/std/sdtm-1-2#Classifier.PermissibleVariable> ;
  cdiscs:dataElementRole <http://rdf.cdisc.org/std/sdtm-1-2#Classifier.IdentifierVariable> ;
  cdiscs:dataElementType <http://rdf.cdisc.org/std/schema#Classifier.Character> ;
.
<http://rdf.cdisc.org/std/sendig-3-0#Column.CL.STUDYID>
  rdf:type mms:DataElement ;
  mms:broader <http://rdf.cdisc.org/std/sdtm-1-2#DE.Identifier.STUDYID> ;
  mms:context <http://rdf.cdisc.org/std/sendig-3-0#Table.CL> ;
  mms:dataElementDescription "Unique identifier for a study."^^xsd:string ;
  mms:dataElementLabel "Study Identifier"^^xsd:string ;
  mms:dataElementName "STUDYID"^^xsd:string ;
  mms:dataElementType "xsd:string"^^xsd:anySimpleType ;
  mms:ordinal "1"^^xsd:positiveInteger ;
  cdiscs:dataElementCompliance <http://rdf.cdisc.org/std/sdtm-1-2#Classifier.RequiredVariable> ;
  cdiscs:dataElementRole <http://rdf.cdisc.org/std/sdtm-1-2#Classifier.IdentifierVariable> ;
  cdiscs:dataElementType <http://rdf.cdisc.org/std/schema#Classifier.Character> ;
.
<http://rdf.cdisc.org/std/sendig-3-0#Column.CL.USUBJID>
  rdf:type mms:DataElement ;
  mms:broader <http://rdf.cdisc.org/std/sdtm-1-2#DE.Identifier.USUBJID> ;
  mms:context <http://rdf.cdisc.org/std/sendig-3-0#Table.CL> ;
  mms:dataElementDescription "Identifier used to uniquely identify a subject across all studies for all applications or submissions involving the product."^^xsd:string ;
  mms:dataElementLabel "Unique Subject Identifier"^^xsd:string ;
  mms:dataElementName "USUBJID"^^xsd:string ;
  mms:dataElementType "xsd:string"^^xsd:anySimpleType ;
  mms:ordinal "3"^^xsd:positiveInteger ;
  cdiscs:dataElementCompliance <http://rdf.cdisc.org/std/sdtm-1-2#Classifier.ExpectedVariable> ;
  cdiscs:dataElementRole <http://rdf.cdisc.org/std/sdtm-1-2#Classifier.IdentifierVariable> ;
  cdiscs:dataElementType <http://rdf.cdisc.org/std/schema#Classifier.Character> ;
.
<http://rdf.cdisc.org/std/sendig-3-0#Column.CL.VISITDY>
  rdf:type mms:DataElement ;
  mms:broader <http://rdf.cdisc.org/std/sdtm-1-2#Timing.VISITDY> ;
  mms:context <http://rdf.cdisc.org/std/sendig-3-0#Table.CL> ;
  mms:dataElementDescription "This is the planned study day of collection."^^xsd:string ;
  mms:dataElementLabel "Planned Study Day of Collection"^^xsd:string ;
  mms:dataElementName "VISITDY"^^xsd:string ;
  mms:dataElementType "xsd:integer"^^xsd:anySimpleType ;
  mms:ordinal "23"^^xsd:positiveInteger ;
  cdiscs:dataElementCompliance <http://rdf.cdisc.org/std/sdtm-1-2#Classifier.ExpectedVariable> ;
  cdiscs:dataElementRole <http://rdf.cdisc.org/std/sdtm-1-2#Classifier.TimingVariable> ;
  cdiscs:dataElementType <http://rdf.cdisc.org/std/schema#Classifier.Numeric> ;
.
<http://rdf.cdisc.org/std/sendig-3-0#Column.CO.CODTC>
  rdf:type mms:DataElement ;
  mms:broader <http://rdf.cdisc.org/std/sdtm-1-2#Timing.--DTC> ;
  mms:context <http://rdf.cdisc.org/std/sendig-3-0#Table.CO> ;
  mms:dataElementDescription "Date/time of the comment, in ISO 8601 format. Should be null if this is a child record of another domain or if comment date was not collected."^^xsd:string ;
  mms:dataElementLabel "Date/Time of Comment"^^xsd:string ;
  mms:dataElementName "CODTC"^^xsd:string ;
  mms:dataElementType "xsd:dateTime"^^xsd:anySimpleType ;
  mms:ordinal "11"^^xsd:positiveInteger ;
  cdiscs:controlledTermsOrFormat "ISO 8601"^^xsd:string ;
  cdiscs:dataElementCompliance <http://rdf.cdisc.org/std/sdtm-1-2#Classifier.ExpectedVariable> ;
  cdiscs:dataElementRole <http://rdf.cdisc.org/std/sdtm-1-2#Classifier.TimingVariable> ;
  cdiscs:dataElementType <http://rdf.cdisc.org/std/schema#Classifier.Character> ;
.
<http://rdf.cdisc.org/std/sendig-3-0#Column.CO.CODY>
  rdf:type mms:DataElement ;
  mms:broader <http://rdf.cdisc.org/std/sdtm-1-2#Timing.--DY> ;
  mms:context <http://rdf.cdisc.org/std/sendig-3-0#Table.CO> ;
  mms:dataElementDescription "Study day of the comment, in integer days. The algorithm for calculations must be relative to the sponsor-defined RFSTDTC variable in the Demographics (DM) domain."^^xsd:string ;
  mms:dataElementLabel "Study Day of Comment"^^xsd:string ;
  mms:dataElementName "CODY"^^xsd:string ;
  mms:dataElementType "xsd:integer"^^xsd:anySimpleType ;
  mms:ordinal "12"^^xsd:positiveInteger ;
  cdiscs:dataElementCompliance <http://rdf.cdisc.org/std/sdtm-1-2#Classifier.PermissibleVariable> ;
  cdiscs:dataElementRole <http://rdf.cdisc.org/std/sdtm-1-2#Classifier.TimingVariable> ;
  cdiscs:dataElementType <http://rdf.cdisc.org/std/schema#Classifier.Numeric> ;
.
<http://rdf.cdisc.org/std/sendig-3-0#Column.CO.COEVAL>
  rdf:type mms:DataElement ;
  mms:context <http://rdf.cdisc.org/std/sendig-3-0#Table.CO> ;
  mms:dataElementDescription "Used to describe the originator of the comment. Examples: TECHNICIAN, STUDY DIRECTOR, VET."^^xsd:string ;
  mms:dataElementLabel "Evaluator"^^xsd:string ;
  mms:dataElementName "COEVAL"^^xsd:string ;
  mms:dataElementType "xsd:string"^^xsd:anySimpleType ;
  mms:ordinal "10"^^xsd:positiveInteger ;
  cdiscs:dataElementCompliance <http://rdf.cdisc.org/std/sdtm-1-2#Classifier.PermissibleVariable> ;
  cdiscs:dataElementRole <http://rdf.cdisc.org/std/sdtm-1-2#Classifier.RecordQualifier> ;
  cdiscs:dataElementType <http://rdf.cdisc.org/std/schema#Classifier.Character> ;
.
<http://rdf.cdisc.org/std/sendig-3-0#Column.CO.COREF>
  rdf:type mms:DataElement ;
  mms:context <http://rdf.cdisc.org/std/sendig-3-0#Table.CO> ;
  mms:dataElementDescription "User-defined reference associated with the comment. May be the logbook page number, name (e.g., Logbook), or a combination of information that identifies the reference (e.g., Logbook, page 650, Day 28, morning)."^^xsd:string ;
  mms:dataElementLabel "Comment Reference"^^xsd:string ;
  mms:dataElementName "COREF"^^xsd:string ;
  mms:dataElementType "xsd:string"^^xsd:anySimpleType ;
  mms:ordinal "8"^^xsd:positiveInteger ;
  cdiscs:dataElementCompliance <http://rdf.cdisc.org/std/sdtm-1-2#Classifier.PermissibleVariable> ;
  cdiscs:dataElementRole <http://rdf.cdisc.org/std/sdtm-1-2#Classifier.RecordQualifier> ;
  cdiscs:dataElementType <http://rdf.cdisc.org/std/schema#Classifier.Character> ;
.
<http://rdf.cdisc.org/std/sendig-3-0#Column.CO.COSEQ>
  rdf:type mms:DataElement ;
  mms:broader <http://rdf.cdisc.org/std/sdtm-1-2#DE.Identifier.--SEQ> ;
  mms:context <http://rdf.cdisc.org/std/sendig-3-0#Table.CO> ;
  mms:dataElementDescription "Sequence number given to ensure uniqueness of subject records within a domain. May be any valid number."^^xsd:string ;
  mms:dataElementLabel "Sequence Number"^^xsd:string ;
  mms:dataElementName "COSEQ"^^xsd:string ;
  mms:dataElementType "xsd:decimal"^^xsd:anySimpleType ;
  mms:ordinal "5"^^xsd:positiveInteger ;
  cdiscs:dataElementCompliance <http://rdf.cdisc.org/std/sdtm-1-2#Classifier.RequiredVariable> ;
  cdiscs:dataElementRole <http://rdf.cdisc.org/std/sdtm-1-2#Classifier.IdentifierVariable> ;
  cdiscs:dataElementType <http://rdf.cdisc.org/std/schema#Classifier.Numeric> ;
.
<http://rdf.cdisc.org/std/sendig-3-0#Column.CO.COVAL>
  rdf:type mms:DataElement ;
  mms:context <http://rdf.cdisc.org/std/sendig-3-0#Table.CO> ;
  mms:dataElementDescription "The text of the comment. Text over 200 characters can be added to additional columns COVAL1-COVALn. See Assumption 4 in Section 5.2.1.1."^^xsd:string ;
  mms:dataElementLabel "Comment"^^xsd:string ;
  mms:dataElementName "COVAL"^^xsd:string ;
  mms:dataElementType "xsd:string"^^xsd:anySimpleType ;
  mms:ordinal "9"^^xsd:positiveInteger ;
  cdiscs:dataElementCompliance <http://rdf.cdisc.org/std/sdtm-1-2#Classifier.RequiredVariable> ;
  cdiscs:dataElementRole <http://rdf.cdisc.org/std/sdtm-1-2#Classifier.TopicVariable> ;
  cdiscs:dataElementType <http://rdf.cdisc.org/std/schema#Classifier.Character> ;
.
<http://rdf.cdisc.org/std/sendig-3-0#Column.CO.DOMAIN>
  rdf:type mms:DataElement ;
  mms:broader <http://rdf.cdisc.org/std/sdtm-1-2#DE.Identifier.DOMAIN> ;
  mms:context <http://rdf.cdisc.org/std/sendig-3-0#Table.CO> ;
  mms:dataElementDescription "Two-character abbreviation for the domain."^^xsd:string ;
  mms:dataElementLabel "Domain Abbreviation"^^xsd:string ;
  mms:dataElementName "DOMAIN"^^xsd:string ;
  mms:dataElementType "xsd:string"^^xsd:anySimpleType ;
  mms:ordinal "2"^^xsd:positiveInteger ;
  cdiscs:controlledTermsOrFormat "CO"^^xsd:string ;
  cdiscs:dataElementCompliance <http://rdf.cdisc.org/std/sdtm-1-2#Classifier.RequiredVariable> ;
  cdiscs:dataElementRole <http://rdf.cdisc.org/std/sdtm-1-2#Classifier.IdentifierVariable> ;
  cdiscs:dataElementType <http://rdf.cdisc.org/std/schema#Classifier.Character> ;
.
<http://rdf.cdisc.org/std/sendig-3-0#Column.CO.IDVAR>
  rdf:type mms:DataElement ;
  mms:context <http://rdf.cdisc.org/std/sendig-3-0#Table.CO> ;
  mms:dataElementDescription "Identifying variable in the parent dataset that identifies the record(s) to which the comment applies. Examples:  BWSEQ or CLGRPID. Used only when individual comments are related to domain records."^^xsd:string ;
  mms:dataElementLabel "Identifying Variable"^^xsd:string ;
  mms:dataElementName "IDVAR"^^xsd:string ;
  mms:dataElementType "xsd:string"^^xsd:anySimpleType ;
  mms:ordinal "6"^^xsd:positiveInteger ;
  cdiscs:dataElementCompliance <http://rdf.cdisc.org/std/sdtm-1-2#Classifier.ExpectedVariable> ;
  cdiscs:dataElementRole <http://rdf.cdisc.org/std/sdtm-1-2#Classifier.RecordQualifier> ;
  cdiscs:dataElementType <http://rdf.cdisc.org/std/schema#Classifier.Character> ;
.
<http://rdf.cdisc.org/std/sendig-3-0#Column.CO.IDVARVAL>
  rdf:type mms:DataElement ;
  mms:context <http://rdf.cdisc.org/std/sendig-3-0#Table.CO> ;
  mms:dataElementDescription "Value of identifying variable of the parent record(s). Used only when individual comments are related to domain records. Cannot be populated if IDVAR is null."^^xsd:string ;
  mms:dataElementLabel "Identifying Variable Value"^^xsd:string ;
  mms:dataElementName "IDVARVAL"^^xsd:string ;
  mms:dataElementType "xsd:string"^^xsd:anySimpleType ;
  mms:ordinal "7"^^xsd:positiveInteger ;
  cdiscs:dataElementCompliance <http://rdf.cdisc.org/std/sdtm-1-2#Classifier.ExpectedVariable> ;
  cdiscs:dataElementRole <http://rdf.cdisc.org/std/sdtm-1-2#Classifier.RecordQualifier> ;
  cdiscs:dataElementType <http://rdf.cdisc.org/std/schema#Classifier.Character> ;
.
<http://rdf.cdisc.org/std/sendig-3-0#Column.CO.RDOMAIN>
  rdf:type mms:DataElement ;
  mms:context <http://rdf.cdisc.org/std/sendig-3-0#Table.CO> ;
  mms:dataElementDescription "Domain abbreviation of the parent record(s). Null for comments collected as a general comment or additional information."^^xsd:string ;
  mms:dataElementLabel "Related Domain Abbreviation"^^xsd:string ;
  mms:dataElementName "RDOMAIN"^^xsd:string ;
  mms:dataElementType "xsd:string"^^xsd:anySimpleType ;
  mms:ordinal "3"^^xsd:positiveInteger ;
  cdiscs:dataElementCompliance <http://rdf.cdisc.org/std/sdtm-1-2#Classifier.ExpectedVariable> ;
  cdiscs:dataElementRole <http://rdf.cdisc.org/std/sdtm-1-2#Classifier.RecordQualifier> ;
